#Wave		#Intensity
1.699584	329.974670
1.699649	349.103638
1.699714	368.168884
1.699779	372.885773
1.699844	310.684387
1.699908	329.746368
1.699973	401.360931
1.700038	391.736938
1.700103	382.116272
1.700168	324.742645
1.700233	396.308533
1.700298	362.822144
1.700363	367.532562
1.700428	348.379730
1.700493	372.177002
1.700558	381.653992
1.700623	305.270416
1.700688	443.519409
1.700753	352.846924
1.700818	362.320709
1.700883	386.090851
1.700948	395.555603
1.701013	409.781982
1.701078	457.352020
1.701143	304.848663
1.701208	404.807190
1.701273	390.452423
1.701338	437.992920
1.701403	414.117401
1.701468	361.695251
1.701534	394.941101
1.701599	361.570374
1.701664	371.021301
1.701729	351.933807
1.701794	361.383118
1.701859	380.337616
1.701925	389.778778
1.701990	399.216644
1.702055	394.395996
1.702120	361.071350
1.702186	408.510254
1.702251	441.684845
1.702316	427.363190
1.702381	360.822235
1.702447	412.975250
1.702512	412.903992
1.702577	398.597168
1.702643	398.528412
1.702708	313.075470
1.702773	407.876465
1.702839	403.064209
1.702904	402.994720
1.702969	459.808777
1.703035	364.939941
1.703100	402.786316
1.703166	322.173523
1.703231	360.014221
1.703297	378.897003
1.703362	416.714874
1.703427	440.315979
1.703493	350.298584
1.703558	449.630157
1.703624	435.356293
1.703689	387.968109
1.703755	430.475800
1.703820	397.293823
1.703886	378.309906
1.703952	420.797272
1.704017	340.361633
1.704083	406.473083
1.704148	406.403076
1.704214	373.259491
1.704280	377.919220
1.704345	425.085907
1.704411	462.791656
1.704476	457.990448
1.704542	439.028656
1.704608	424.793304
1.704674	457.753998
1.704739	419.928833
1.704805	396.269135
1.704871	429.217682
1.704936	433.859711
1.705002	410.209778
1.705068	546.852295
1.705134	414.782104
1.705199	433.561249
1.705265	409.927643
1.705331	419.279144
1.705397	438.047791
1.705463	381.459900
1.705528	480.274323
1.705594	447.237427
1.705660	447.160522
1.705726	475.320526
1.705792	475.238831
1.705858	442.225464
1.705924	390.408569
1.705989	423.261841
1.706056	437.295410
1.706121	423.116394
1.706187	432.444641
1.706253	484.066803
1.706319	446.392700
1.706385	526.183105
1.706451	432.147583
1.706517	375.715942
1.706583	431.999146
1.706649	497.652649
1.706715	535.119446
1.706781	431.776611
1.706847	427.010071
1.706913	450.394806
1.706980	487.843964
1.707046	483.070190
1.707112	379.824951
1.707178	450.085632
1.707244	435.945618
1.707310	379.629425
1.707376	379.564270
1.707443	431.036072
1.707509	473.121429
1.707575	393.419617
1.707641	505.738464
1.707707	519.697571
1.707773	468.115692
1.707840	421.231873
1.707906	393.082306
1.707972	458.517365
1.708038	491.184357
1.708105	467.714417
1.708171	397.489105
1.708237	439.500793
1.708303	495.522308
1.708370	434.676178
1.708436	453.294220
1.708503	481.250519
1.708569	523.211853
1.708635	499.768524
1.708702	368.924744
1.708768	410.883728
1.708834	452.828308
1.708901	480.755920
1.708967	424.672760
1.709034	443.263733
1.709100	527.160217
1.709167	419.790192
1.709233	503.661957
1.709299	354.368073
1.709366	461.532013
1.709432	470.775238
1.709499	521.958435
1.709566	535.847656
1.709632	521.779663
1.709699	489.084717
1.709765	447.086609
1.709832	451.666443
1.709898	507.455811
1.709965	437.547546
1.710032	414.202850
1.710098	409.478790
1.710165	530.370361
1.710231	502.370178
1.710298	460.427216
1.710365	534.748169
1.710431	492.813995
1.710498	488.081299
1.710565	506.588196
1.710631	525.088745
1.710698	436.724792
1.710765	469.166595
1.710832	492.308472
1.710898	510.798798
1.710965	506.068634
1.711032	450.277649
1.711099	556.949280
1.711165	482.606842
1.711232	436.127777
1.711299	491.719604
1.711366	519.463989
1.711433	537.924316
1.711500	445.102661
1.711566	482.112152
1.711633	519.109009
1.711700	537.556763
1.711767	518.931641
1.711834	491.047791
1.711901	490.963928
1.711968	564.975159
1.712035	527.837402
1.712102	532.376648
1.712169	601.714294
1.712236	541.450378
1.712303	545.984924
1.712370	569.022705
1.712437	568.925537
1.712504	485.585205
1.712571	434.640167
1.712638	522.403748
1.712705	471.469818
1.712772	554.575684
1.712839	494.412262
1.712906	526.667114
1.712973	540.434509
1.713040	461.831024
1.713107	558.720154
1.713175	521.690979
1.713242	493.906281
1.713309	535.358459
1.713376	549.110229
1.713443	549.016602
1.713511	535.084534
1.713578	493.485199
1.713645	590.236755
1.713712	613.188293
1.713779	493.232758
1.713847	571.499390
1.713914	502.280731
1.713981	562.089966
1.714048	483.683472
1.714116	515.841064
1.714183	524.963013
1.714250	497.248627
1.714318	547.800964
1.714385	566.117920
1.714453	538.410645
1.714520	547.520935
1.714587	621.031372
1.714655	574.931030
1.714722	551.839783
1.714789	510.364838
1.714857	588.428589
1.714924	514.787292
1.714992	569.846008
1.715059	542.180420
1.715127	537.494141
1.715194	560.368530
1.715262	546.495911
1.715329	596.910645
1.715397	601.399902
1.715464	564.577026
1.715532	582.838013
1.715599	610.269775
1.715667	568.876465
1.715734	564.192688
1.715802	582.441284
1.715870	564.000671
1.715937	550.150940
1.716005	650.901123
1.716073	655.373413
1.716140	641.515137
1.716208	627.661621
1.716275	600.070679
1.716343	512.950256
1.716411	700.607483
1.716478	563.137634
1.716546	640.860657
1.716614	517.178162
1.716682	549.122314
1.716749	535.303223
1.716817	635.850403
1.716885	539.694885
1.716953	557.894775
1.717021	557.799927
1.717088	516.562927
1.717156	617.027771
1.717224	667.190674
1.717292	635.094116
1.717360	607.576721
1.717427	561.798767
1.717495	685.004028
1.717563	602.701111
1.717631	666.510681
1.717699	584.238831
1.717767	556.758057
1.717835	542.975037
1.717903	529.196655
1.717971	624.893311
1.718039	629.347656
1.718107	574.524170
1.718175	592.662415
1.718243	606.236267
1.718311	569.674133
1.718379	592.360535
1.718447	642.374268
1.718515	605.824585
1.718583	592.058838
1.718651	532.762512
1.718719	559.988586
1.718787	619.069275
1.718855	655.373901
1.718923	523.300049
1.718992	596.005798
1.719060	550.415771
1.719128	591.255432
1.719196	586.607788
1.719264	741.091797
1.719332	595.500366
1.719401	568.129150
1.719469	649.829468
1.719537	627.001770
1.719605	581.468262
1.719674	599.537415
1.719742	681.176941
1.719810	603.874512
1.719878	599.232422
1.719947	590.053101
1.720015	676.176941
1.720083	676.062317
1.720152	557.997070
1.720220	689.440491
1.720288	612.228210
1.720357	680.138245
1.720425	598.420227
1.720493	639.113281
1.720562	679.792480
1.720630	589.053650
1.720699	616.136353
1.720767	638.680176
1.720835	579.696533
1.720904	620.351318
1.720972	688.156372
1.721041	611.088013
1.721109	656.242554
1.721178	638.031250
1.721246	646.971741
1.721315	687.573792
1.721383	633.184387
1.721452	682.818909
1.721520	664.618469
1.721589	605.740112
1.721658	696.031189
1.721726	637.167419
1.721795	646.095825
1.721864	659.538635
1.721932	650.393738
1.722001	668.347107
1.722069	672.749084
1.722138	604.920227
1.722207	537.114380
1.722275	722.048401
1.722344	645.221558
1.722413	636.089844
1.722481	654.024231
1.722550	689.991577
1.722619	653.802979
1.722688	599.593689
1.722756	734.716064
1.722825	739.098511
1.722894	603.795410
1.722963	644.239868
1.723032	648.635315
1.723101	648.525635
1.723169	679.936218
1.723238	751.855286
1.723307	702.213135
1.723376	783.105286
1.723445	809.971985
1.723514	683.860718
1.723583	679.246765
1.723651	665.639282
1.723720	661.029968
1.723789	678.902405
1.723858	611.358459
1.723927	674.178467
1.723996	678.558289
1.724065	620.034607
1.724134	781.650635
1.724203	714.146301
1.724272	669.118408
1.724341	664.515381
1.724410	659.913940
1.724479	727.129211
1.724549	718.031006
1.724618	713.422791
1.724687	740.219421
1.724756	681.783936
1.724825	739.969421
1.724894	757.780090
1.724963	650.056580
1.725032	663.393982
1.725101	734.988159
1.725171	654.208252
1.725240	712.339417
1.725309	703.260437
1.725378	810.628418
1.725447	689.589539
1.725517	725.289917
1.725586	693.833130
1.725655	760.849854
1.725724	733.872498
1.725794	742.696777
1.725863	711.258240
1.725932	787.171875
1.726002	795.982727
1.726071	688.543030
1.726140	768.892334
1.726210	768.762695
1.726279	782.039368
1.726348	728.291016
1.726418	750.504639
1.726487	728.045349
1.726557	750.251526
1.726626	705.474731
1.726696	763.391357
1.726765	709.700378
1.726834	834.538330
1.726904	763.005310
1.726973	762.876709
1.727043	753.827087
1.727112	793.837891
1.727182	851.671265
1.727251	771.279053
1.727321	762.234070
1.727390	721.994751
1.727460	761.977173
1.727530	766.304016
1.727599	677.084839
1.727669	819.490906
1.727738	788.181824
1.727808	801.405823
1.727878	756.755737
1.727947	756.628296
1.728017	743.150818
1.728087	743.025696
1.728156	734.003540
1.728226	827.282837
1.728296	764.885376
1.728365	782.541626
1.728435	804.637451
1.728505	751.164795
1.728575	768.814392
1.728644	799.787842
1.728714	835.193359
1.728784	817.285706
1.728854	812.707092
1.728923	772.607849
1.728993	772.477783
1.729063	741.276306
1.729133	843.226379
1.729203	701.091309
1.729273	758.648315
1.729343	740.777527
1.729412	780.568298
1.729482	877.991638
1.729552	811.340576
1.729622	789.040039
1.729692	753.450806
1.729762	784.343323
1.729832	832.947693
1.729902	850.526917
1.729972	752.944031
1.730042	788.244141
1.730112	796.966797
1.730182	832.247559
1.730252	774.568298
1.730322	805.415588
1.730392	907.046326
1.730462	831.687988
1.730532	769.624390
1.730602	818.141296
1.730672	782.630615
1.730743	800.182678
1.730813	844.249756
1.730883	923.657288
1.730953	808.616638
1.731023	733.375977
1.731093	803.927734
1.731164	821.458435
1.731234	763.916321
1.731304	781.447815
1.731374	812.216064
1.731444	803.252625
1.731515	856.070557
1.731585	838.278748
1.731655	745.501648
1.731725	970.312561
1.731796	824.627136
1.731866	864.169983
1.731936	872.841431
1.732007	784.543884
1.732077	876.955139
1.732147	867.995789
1.732218	863.444702
1.732288	836.872192
1.732358	788.289368
1.732429	885.025513
1.732499	898.084045
1.732570	836.310425
1.732640	836.170105
1.732710	844.830078
1.732781	954.673767
1.732851	875.337280
1.732922	787.231567
1.732992	817.879944
1.733063	830.932068
1.733133	887.937134
1.733204	883.393188
1.733274	935.976013
1.733345	869.916260
1.733416	909.305359
1.733486	869.624451
1.733557	878.261230
1.733627	842.989380
1.733698	930.644653
1.733769	873.430359
1.733839	873.283875
1.733910	868.749817
1.733980	886.151733
1.734051	793.893921
1.734122	881.469177
1.734193	969.015076
1.734263	868.021851
1.734334	929.241333
1.734405	858.965881
1.734475	871.967163
1.734546	876.202026
1.734617	924.238220
1.734688	932.842407
1.734758	919.549683
1.734829	849.346375
1.734900	875.468140
1.734971	866.568237
1.735042	875.174805
1.735113	962.530945
1.735183	918.625671
1.735254	949.087463
1.735325	931.436768
1.735396	935.652954
1.735467	909.267334
1.735538	891.632080
1.735609	957.032959
1.735680	913.179871
1.735751	952.343933
1.735822	1000.230469
1.735893	938.923767
1.735964	1012.994568
1.736035	921.146851
1.736106	1047.574585
1.736177	1025.578369
1.736248	903.230591
1.736319	924.892944
1.736390	837.498657
1.736461	981.279480
1.736532	928.789124
1.736603	954.792358
1.736674	932.837341
1.736745	928.322876
1.736817	941.240356
1.736888	989.008362
1.736959	958.349915
1.737030	1019.165283
1.737101	927.546570
1.737172	949.161133
1.737244	940.295898
1.737315	914.023682
1.737386	939.981384
1.737457	909.366882
1.737528	978.819763
1.737600	1004.753540
1.737671	921.957275
1.737742	973.980652
1.737814	991.207397
1.737885	1025.815063
1.737956	1012.605713
1.738028	1068.924316
1.738099	1003.578186
1.738170	999.066589
1.738242	1033.643921
1.738313	907.544006
1.738384	1033.298462
1.738456	989.717102
1.738527	967.850952
1.738599	1019.762146
1.738670	1015.253052
1.738742	1032.435303
1.738813	897.808350
1.738885	1036.426758
1.738956	1044.925171
1.739028	966.719421
1.739099	1061.913452
1.739171	927.393921
1.739242	961.902161
1.739314	1005.063171
1.739385	1043.878296
1.739457	1039.373169
1.739528	1030.539551
1.739600	1077.989502
1.739672	1034.523926
1.739743	982.417297
1.739815	1073.122437
1.739887	1021.026672
1.739958	1098.718140
1.740030	964.461548
1.740101	981.597351
1.740173	964.139526
1.740245	1067.725098
1.740317	968.139709
1.740388	1084.654053
1.740460	1075.831787
1.740532	1170.689819
1.740604	1079.791870
1.740675	980.287354
1.740747	1036.254272
1.740819	1040.398315
1.740891	997.061829
1.740963	1001.211060
1.741034	1104.600220
1.741106	1087.159546
1.741178	1130.112183
1.741250	1086.796753
1.741322	1138.359131
1.741394	978.653076
1.741466	1021.595093
1.741538	1116.240479
1.741610	1068.654297
1.741681	960.766846
1.741753	1094.143799
1.741825	1089.654419
1.741897	1024.879517
1.741969	1115.124023
1.742041	1058.975952
1.742113	1067.407593
1.742185	1170.509888
1.742257	1110.077881
1.742329	1165.817749
1.742401	1019.382813
1.742474	1019.212891
1.742546	1031.942261
1.742618	1104.854004
1.742690	1048.791626
1.742762	1095.890503
1.742834	1095.707886
1.742906	1065.452026
1.742978	1091.047241
1.743051	1022.149536
1.743123	1069.213623
1.743195	1034.688965
1.743267	1159.001953
1.743340	1081.554932
1.743412	1124.286377
1.743484	1201.327393
1.743556	1256.893799
1.743629	1119.435669
1.743701	1162.132324
1.743773	1140.500854
1.743845	1106.015747
1.743918	1105.831543
1.743990	1139.931030
1.744062	1084.039673
1.744135	1126.699341
1.744207	1173.628296
1.744280	1160.585083
1.744352	1181.801270
1.744424	1134.511597
1.744497	1164.286011
1.744569	1198.330200
1.744642	1202.409668
1.744714	1103.808105
1.744786	1172.066162
1.744859	1171.871094
1.744931	1137.466553
1.745004	1154.379150
1.745076	1167.011353
1.745149	1230.927979
1.745221	1140.982910
1.745294	1115.157349
1.745367	1174.778687
1.745439	1153.227173
1.745512	1234.174805
1.745584	1251.048706
1.745657	1139.844482
1.745729	1250.632446
1.745802	1083.985718
1.745875	1203.280029
1.745947	1262.807251
1.746020	1091.975952
1.746093	1249.592773
1.746166	1181.159180
1.746238	1129.801880
1.746311	1236.181396
1.746384	1227.451904
1.746456	1261.338013
1.746529	1244.086060
1.746602	1243.879150
1.746675	1175.526001
1.746747	1154.038330
1.746820	1136.815552
1.746893	1230.281250
1.746966	1259.870972
1.747039	1246.894775
1.747112	1161.589355
1.747184	1186.921509
1.747257	1284.554565
1.747330	1199.285400
1.747403	1241.606934
1.747476	1186.132690
1.747549	1249.695679
1.747622	1342.987061
1.747695	1266.277466
1.747768	1249.072876
1.747841	1244.617554
1.747914	1231.669312
1.747987	1312.146973
1.748060	1265.225952
1.748133	1205.585571
1.748206	1273.294312
1.748279	1290.057373
1.748352	1374.701172
1.748425	1255.691284
1.748498	1170.652832
1.748571	1200.143921
1.748644	1208.424805
1.748717	1220.942383
1.748791	1292.797241
1.748864	1377.342041
1.748937	1355.927002
1.749010	1228.604858
1.749083	1266.523682
1.749156	1202.786011
1.749229	1274.572144
1.749303	1380.204590
1.749376	1185.255005
1.749449	1303.564087
1.749522	1337.200928
1.749596	1366.595703
1.749669	1209.849854
1.749742	1256.174072
1.749816	1294.025146
1.749889	1314.951172
1.749962	1331.642700
1.750035	1411.729736
1.750109	1284.714478
1.750182	1229.572021
1.750256	1305.411499
1.750329	1415.017212
1.750402	1368.326904
1.750476	1368.099976
1.750549	1321.432861
1.750623	1266.338989
1.750696	1371.639771
1.750769	1392.510986
1.750843	1253.052002
1.750916	1257.062622
1.750990	1315.901001
1.751063	1357.852051
1.751137	1264.869873
1.751211	1357.401855
1.751284	1386.680664
1.751358	1437.020386
1.751431	1331.446289
1.751505	1322.800049
1.751578	1331.004883
1.751652	1368.686279
1.751725	1402.144653
1.751799	1284.033691
1.751873	1393.261353
1.751946	1308.859497
1.752020	1375.968262
1.752094	1354.704468
1.752167	1447.022095
1.752241	1429.959229
1.752315	1467.567871
1.752389	1391.646118
1.752462	1471.285278
1.752536	1311.328491
1.752610	1302.706665
1.752684	1382.320923
1.752757	1382.091919
1.752831	1398.663818
1.752905	1448.826050
1.752979	1469.580078
1.753053	1423.157593
1.753127	1393.540039
1.753200	1405.899414
1.753274	1456.018799
1.753348	1430.605713
1.753422	1480.704346
1.753496	1392.386597
1.753570	1387.962769
1.753644	1513.509399
1.753718	1488.107666
1.753792	1404.038208
1.753866	1378.662964
1.753940	1499.938110
1.754014	1348.882935
1.754088	1486.876343
1.754162	1440.565674
1.754236	1515.693237
1.754310	1490.324463
1.754384	1448.221802
1.754458	1452.166992
1.754532	1477.032104
1.754606	1359.648682
1.754680	1539.285889
1.754754	1555.759766
1.754828	1496.961914
1.754902	1484.171997
1.754977	1500.646729
1.755051	1483.680908
1.755125	1487.614258
1.755199	1570.928101
1.755273	1403.575928
1.755347	1532.818848
1.755422	1532.565308
1.755496	1511.435669
1.755570	1523.709351
1.755645	1523.457397
1.755719	1531.551758
1.755793	1431.159058
1.755867	1451.781372
1.755942	1530.792114
1.756016	1584.754272
1.756090	1501.097900
1.756165	1467.497437
1.756239	1500.601563
1.756314	1629.550537
1.756388	1658.449829
1.756462	1558.185181
1.756537	1532.934204
1.756611	1416.063721
1.756685	1632.368408
1.756760	1561.318726
1.756834	1540.246582
1.756909	1544.154175
1.756983	1577.190552
1.757058	1597.733765
1.757132	1468.507324
1.757207	1701.190552
1.757281	1596.941772
1.757356	1530.149658
1.757431	1642.144775
1.757505	1587.837158
1.757580	1624.978394
1.757654	1608.088867
1.757729	1570.432007
1.757804	1557.710815
1.757878	1561.606689
1.757953	1627.789185
1.758028	1606.761108
1.758102	1569.135376
1.758177	1527.371582
1.758252	1605.965088
1.758326	1667.936401
1.758401	1551.505371
1.758476	1679.828735
1.758550	1580.022339
1.758625	1650.249512
1.758700	1691.433716
1.758775	1653.849609
1.758850	1711.596680
1.758924	1698.883301
1.758999	1677.888184
1.759074	1739.744873
1.759149	1660.767944
1.759224	1664.634766
1.759298	1606.397217
1.759373	1597.853027
1.759448	1667.949463
1.759523	1651.121582
1.759598	1688.086182
1.759673	1745.722656
1.759748	1749.570679
1.759823	1616.948486
1.759898	1658.029053
1.759973	1756.972778
1.760048	1607.881470
1.760123	1690.270020
1.760198	1669.331055
1.760273	1673.187012
1.760348	1652.257813
1.760423	1660.245117
1.760498	1647.583374
1.760573	1643.182983
1.760648	1675.935303
1.760723	1758.203613
1.760798	1807.432373
1.760874	1815.385986
1.760949	1695.455933
1.761024	1769.417603
1.761099	1802.116455
1.761174	1744.095093
1.761249	1739.685059
1.761325	1776.494385
1.761400	1755.595825
1.761475	1747.065552
1.761550	1635.543945
1.761626	1725.894043
1.761701	1742.083130
1.761776	1836.503540
1.761851	1720.923584
1.761927	1840.014526
1.762002	1827.364136
1.762077	1818.832886
1.762153	1896.705322
1.762228	1842.915283
1.762303	1772.691040
1.762379	1825.858765
1.762454	1784.441650
1.762529	1747.149170
1.762605	1668.766235
1.762680	1779.450073
1.762756	1787.374634
1.762831	1778.863647
1.762907	1807.323486
1.762982	1848.094482
1.763058	1736.922607
1.763133	1896.751831
1.763209	1826.656982
1.763284	1830.460205
1.763360	1871.193726
1.763435	1850.371338
1.763511	1845.964478
1.763586	1866.167725
1.763662	1898.666748
1.763738	1861.453003
1.763813	1881.643555
1.763889	1770.666992
1.763964	1958.887695
1.764040	1917.590942
1.764116	1896.791504
1.764191	1810.461670
1.764267	1998.551636
1.764343	1834.433838
1.764419	1961.047241
1.764494	1833.829956
1.764570	1800.786377
1.764646	1919.158691
1.764722	1796.102295
1.764797	1865.348022
1.764873	2024.551147
1.764949	1958.788574
1.765025	1848.072510
1.765100	1933.615967
1.765176	2010.956665
1.765252	2035.145508
1.765328	1957.177246
1.765404	1936.428711
1.765480	1919.771606
1.765556	1948.043335
1.765632	2004.888672
1.765708	1975.980469
1.765783	1857.279297
1.765859	1889.623901
1.765935	1819.942993
1.766011	1958.360718
1.766087	2002.910278
1.766163	1994.423706
1.766239	1941.082886
1.766315	1969.304199
1.766391	1964.903687
1.766467	2029.794800
1.766544	1919.429932
1.766620	1951.710693
1.766696	2032.867310
1.766772	2028.459839
1.766848	2007.763550
1.766924	2084.798828
1.767000	2039.672852
1.767076	1933.503540
1.767152	2087.840576
1.767229	2026.459351
1.767305	2123.770752
1.767381	1989.182251
1.767457	1968.519287
1.767533	2012.927368
1.767610	1988.201416
1.767686	2065.113037
1.767762	2076.967041
1.767838	2121.328125
1.767915	2047.842163
1.767991	2055.630615
1.768067	1961.870239
1.768144	1977.792603
1.768220	2018.072632
1.768296	2082.698486
1.768373	2062.060303
1.768449	2195.652100
1.768525	2032.977783
1.768602	2158.416016
1.768678	1967.405640
1.768755	2157.706787
1.768831	2015.421265
1.768908	2043.471680
1.768984	2022.866699
1.769060	2050.906738
1.769137	2200.512451
1.769214	2013.766235
1.769290	2134.970703
1.769367	2086.013916
1.769443	2243.615479
1.769520	2142.017334
1.769596	2097.131836
1.769673	2108.930908
1.769749	2217.858643
1.769826	2185.122314
1.769903	2249.497070
1.769979	2143.952637
1.770056	2127.422363
1.770132	2228.169678
1.770209	2203.544678
1.770286	2207.225342
1.770362	2214.946777
1.770439	2117.593994
1.770516	2145.530273
1.770593	2133.058350
1.770669	2173.100342
1.770746	2152.550781
1.770823	2236.993164
1.770900	2184.142090
1.770976	2220.112549
1.771053	2195.532715
1.771130	2227.454346
1.771207	2158.500977
1.771284	2238.824951
1.771361	2190.058594
1.771437	2262.285889
1.771514	2237.722900
1.771591	2132.542725
1.771668	2349.845703
1.771745	2313.190674
1.771822	2212.078857
1.771899	2215.744629
1.771976	2263.716553
1.772053	2311.672852
1.772130	2275.053711
1.772207	2254.550537
1.772284	2274.307373
1.772361	2233.687744
1.772438	2321.849365
1.772515	2152.488037
1.772592	2333.155762
1.772669	2377.015381
1.772746	2332.390381
1.772823	2199.324707
1.772900	2375.845947
1.772977	2520.154053
1.773054	2354.973145
1.773132	2362.623047
1.773209	2354.200684
1.773286	2365.864990
1.773363	2413.670166
1.773440	2324.934814
1.773517	2348.642334
1.773595	2360.299561
1.773672	2271.616455
1.773749	2299.333740
1.773826	2343.090332
1.773904	2310.614258
1.773981	2430.560303
1.774058	2353.968506
1.774136	2325.516113
1.774213	2433.374023
1.774290	2344.794922
1.774368	2336.395508
1.774445	2428.170898
1.774522	2419.760254
1.774600	2455.413818
1.774677	2422.972168
1.774755	2498.656006
1.774832	2442.196045
1.774909	2341.722412
1.774987	2489.423340
1.775064	2537.034912
1.775142	2408.587891
1.775219	2384.191406
1.775297	2547.787109
1.775374	2451.393311
1.775452	2434.998291
1.775529	2522.548828
1.775607	2378.241943
1.775684	2513.729736
1.775762	2549.279541
1.775840	2452.979980
1.775917	2608.360840
1.775995	2587.964844
1.776072	2555.595947
1.776150	2495.290283
1.776228	2510.848877
1.776305	2510.437744
1.776383	2518.007568
1.776461	2477.696777
1.776538	2509.204590
1.776616	2472.896729
1.776694	2647.958984
1.776772	2511.959473
1.776849	2571.346924
1.776927	2543.024170
1.777005	2478.843506
1.777083	2566.099365
1.777161	2430.224121
1.777238	2644.925781
1.777316	2676.354004
1.777394	2552.473389
1.777472	2552.055420
1.777550	2531.734131
1.777628	2559.180176
1.777706	2530.905518
1.777783	2598.130127
1.777861	2526.098877
1.777939	2732.513184
1.778017	2791.718262
1.778095	2664.024414
1.778173	2580.102783
1.778251	2714.825439
1.778329	2587.206787
1.778407	2702.016357
1.778485	2661.845215
1.778563	2653.465332
1.778641	2724.520020
1.778719	2795.551270
1.778797	2699.806641
1.778875	2623.941406
1.778953	2762.427490
1.779032	2678.639893
1.779110	2709.943359
1.779188	2701.565918
1.779266	2736.821777
1.779344	2811.723389
1.779422	2716.100830
1.779500	2664.118652
1.779579	2699.357178
1.779657	2770.252686
1.779735	2765.837158
1.779813	2793.117920
1.779892	2760.971191
1.779970	2863.494629
1.780048	2779.867920
1.780126	2735.861328
1.780205	2818.545166
1.780283	2885.370117
1.780361	2782.007568
1.780440	2738.029053
1.780518	2943.295654
1.780596	2832.063232
1.780675	2780.188477
1.780753	2965.576660
1.780832	2834.627930
1.780910	2774.872314
1.780988	2940.409668
1.781067	2868.801514
1.781145	2888.086914
1.781224	2824.411377
1.781302	2780.504395
1.781381	2835.334961
1.781459	2933.578613
1.781538	2838.355713
1.781616	2940.513916
1.781695	3042.638428
1.781773	3002.684082
1.781852	2978.523193
1.781931	2847.870605
1.782009	2949.943359
1.782088	2988.892578
1.782166	2945.036865
1.782245	3137.705811
1.782324	2865.250488
1.782402	2971.177246
1.782481	2943.112549
1.782560	2950.510254
1.782638	2930.334961
1.782717	3059.809570
1.782796	2988.437744
1.782875	3007.633057
1.782953	2963.845215
1.783032	3002.715088
1.783111	2990.420410
1.783190	2993.865967
1.783268	2961.909180
1.783347	2918.164307
1.783426	3114.297363
1.783505	2889.690186
1.783584	3018.938232
1.783663	3034.166260
1.783742	3002.233887
1.783820	3048.891357
1.783899	2954.113281
1.783978	3142.160400
1.784057	3184.844971
1.784136	3141.134521
1.784215	3164.176270
1.784294	3096.932373
1.784373	3088.577637
1.784452	3154.779053
1.784531	3134.647705
1.784610	3051.761963
1.784689	3090.483154
1.784768	3148.798096
1.784847	3156.125244
1.784926	3316.330566
1.785005	3111.981934
1.785084	3091.880371
1.785164	3056.112793
1.785243	3216.229492
1.785322	3200.037354
1.785401	3199.515137
1.785480	3163.753174
1.785559	3120.172852
1.785638	3213.605957
1.785718	3256.131348
1.785797	3322.120605
1.785876	3274.630371
1.785955	3145.009766
1.786035	3128.852295
1.786114	3300.400635
1.786193	3292.042480
1.786273	3373.597656
1.786352	3201.072510
1.786431	3173.195313
1.786510	3305.523682
1.786590	3258.105225
1.786669	3308.351074
1.786748	3323.432861
1.786828	3318.985840
1.786907	3287.212158
1.786987	3329.613525
1.787066	3360.292480
1.787146	3387.059570
1.787225	3292.870850
1.787304	3343.045166
1.787384	3248.894287
1.787463	3412.147461
1.787543	3415.489990
1.787622	3469.509521
1.787702	3281.854492
1.787781	3491.760254
1.787861	3432.744629
1.787941	3350.373535
1.788020	3408.254395
1.788100	3294.757813
1.788179	3325.371582
1.788259	3324.829346
1.788339	3355.428223
1.788418	3409.368652
1.788498	3373.790771
1.788578	3524.978271
1.788657	3403.811279
1.788737	3442.150879
1.788817	3313.259277
1.788896	3324.383545
1.788976	3432.692627
1.789056	3436.020020
1.789136	3443.232422
1.789215	3465.985107
1.789295	3589.740234
1.789375	3511.467773
1.789455	3549.732666
1.789535	3556.920410
1.789614	3350.569824
1.789694	3567.406738
1.789774	3485.320068
1.789854	3659.377686
1.789934	3437.625000
1.790014	3425.427002
1.790094	3548.986328
1.790174	3622.090820
1.790254	3540.074951
1.790334	3500.730469
1.790413	3519.540771
1.790493	3592.602051
1.790573	3460.270752
1.790653	3603.054443
1.790734	3586.972900
1.790814	3780.038086
1.790894	3523.846436
1.790974	3550.374512
1.791054	3603.991699
1.791134	3723.388916
1.791214	3583.468506
1.791294	3648.661133
1.791374	3613.249756
1.791454	3585.585693
1.791534	3604.338135
1.791615	3677.218262
1.791695	3595.432129
1.791775	3656.693359
1.791855	3679.286621
1.791935	3713.465088
1.792016	3786.267578
1.792096	3843.594482
1.792176	3742.549316
1.792256	3664.707031
1.792337	3687.276367
1.792417	3725.280029
1.792497	3747.832031
1.792578	3862.995850
1.792658	3557.544678
1.792738	3730.570068
1.792819	3795.536133
1.792899	3733.212158
1.792979	3805.868408
1.793060	3766.695068
1.793140	3712.115479
1.793221	3865.675781
1.793301	3830.365234
1.793381	3814.330322
1.793462	3678.881348
1.793542	3878.565918
1.793623	3847.126709
1.793703	3931.208252
1.793784	3899.770752
1.793864	3806.757568
1.793945	3856.168213
1.794026	3759.344482
1.794106	3951.093750
1.794187	3958.143799
1.794267	3834.428711
1.794348	3891.484863
1.794428	4071.553223
1.794509	3844.089600
1.794590	3931.863770
1.794670	3977.337891
1.794751	3911.373291
1.794832	3995.251709
1.794912	3821.758301
1.794993	3874.901367
1.795074	3985.622559
1.795155	3896.675293
1.795235	3842.302734
1.795316	4110.326660
1.795397	4002.215820
1.795478	3993.891602
1.795559	4016.257568
1.795639	3965.744873
1.795720	3896.074951
1.795801	4025.800537
1.795882	3998.311279
1.795963	4055.153809
1.796044	4077.487549
1.796125	4019.350342
1.796205	4145.119141
1.796286	3968.248535
1.796367	4090.154541
1.796448	4058.856445
1.796529	3966.312744
1.796610	4256.585449
1.796691	4106.630859
1.796772	4048.563721
1.796853	4124.425293
1.796934	4184.960938
1.797015	4176.630859
1.797096	4087.996582
1.797177	4072.037842
1.797258	4178.416992
1.797340	4238.893555
1.797421	4219.096191
1.797502	4283.367676
1.797583	4236.826660
1.797664	4133.003906
1.797745	4155.247070
1.797826	4250.034668
1.797908	4314.248535
1.797989	4111.230469
1.798070	4228.879395
1.798151	4102.262207
1.798232	4128.303223
1.798314	4207.743652
1.798395	4363.441406
1.798476	4320.783203
1.798558	4220.943848
1.798639	4266.005859
1.798720	4158.584473
1.798802	4310.352539
1.798883	4176.285645
1.798964	4236.564453
1.799046	4369.199707
1.799127	4334.211914
1.799208	4261.155762
1.799290	4431.795410
1.799371	4324.485840
1.799453	4236.241699
1.799534	4311.664063
1.799616	4215.840820
1.799697	4272.220215
1.799778	4328.581055
1.799860	4403.938965
1.799942	4254.928711
1.800023	4482.346680
1.800105	4390.389648
1.800186	4363.072266
1.800268	4499.162109
1.800349	4494.632324
1.800431	4334.354980
1.800513	4348.843750
1.800594	4541.809570
1.800676	4487.915527
1.800757	4407.464844
1.800839	4281.492676
1.800921	4383.263184
1.801003	4568.478027
1.801084	4385.633301
1.801166	4483.543945
1.801248	4406.964355
1.801329	4425.208496
1.801411	4576.143555
1.801493	4397.236328
1.801575	4578.447266
1.801656	4475.387695
1.801738	4478.449707
1.801820	4591.370605
1.801902	4594.412598
1.801984	4597.453613
1.802066	4543.697266
1.802148	4501.315918
1.802229	4708.770020
1.802311	4556.622559
1.802393	4612.642090
1.802475	4619.459961
1.802557	4611.144531
1.802639	4723.859375
1.802721	4530.236328
1.802803	4537.062500
1.802885	4543.886719
1.802967	4562.047363
1.803049	4678.457031
1.803131	4651.248535
1.803213	4673.160645
1.803295	4642.184570
1.803377	4713.186523
1.803459	4652.005859
1.803541	4681.453613
1.803623	4907.178711
1.803706	4702.579102
1.803788	4679.174316
1.803870	4701.052734
1.803952	4639.933105
1.804034	4793.819336
1.804116	4676.137695
1.804199	4713.083496
1.804281	4633.151855
1.804363	4824.631348
1.804445	4756.013184
1.804528	4781.617676
1.804610	4716.795898
1.804692	4716.030762
1.804775	4715.265625
1.804857	4834.999023
1.804939	4706.205566
1.805022	4754.378418
1.805104	4734.788574
1.805186	4639.941895
1.805269	4831.078125
1.805351	4837.817871
1.805434	5010.053223
1.805516	4817.445313
1.805598	5098.669922
1.805681	4924.907227
1.805763	4927.867188
1.805846	4746.671387
1.805928	4843.600586
1.806011	4872.871094
1.806093	5044.875977
1.806176	4987.720703
1.806258	4949.359863
1.806341	4843.428223
1.806423	4808.856934
1.806506	5018.266113
1.806589	4934.891113
1.806671	5009.134277
1.806754	4989.563965
1.806836	4898.732422
1.806919	5014.198242
1.807002	4987.137207
1.807084	5128.794922
1.807167	4959.280273
1.807250	5044.678223
1.807333	4905.209961
1.807415	4915.654785
1.807498	4959.810547
1.807581	4880.351563
1.807664	5021.865234
1.807746	5021.051270
1.807829	5009.005859
1.807912	5071.825684
1.807995	5026.094238
1.808078	5006.570313
1.808160	5046.912109
1.808243	5072.278320
1.808326	5120.076172
1.808409	5007.063965
1.808492	5021.207520
1.808575	5252.161621
1.808658	5165.345703
1.808741	5082.294922
1.808824	5062.789063
1.808907	5043.290039
1.808990	5053.677734
1.809073	4996.840332
1.809156	5235.003418
1.809239	5025.087402
1.809322	5143.721191
1.809405	5004.798340
1.809488	5186.832520
1.809571	5197.184570
1.809654	5233.645508
1.809737	5154.473145
1.809820	5209.574707
1.809903	5324.314453
1.809987	5204.158691
1.810070	5300.225098
1.810153	5213.652344
1.810236	5112.203125
1.810319	5159.806152
1.810403	5330.314941
1.810486	5292.208496
1.810569	5287.626953
1.810652	5283.047363
1.810735	5315.693848
1.810819	5177.123047
1.810902	5287.922363
1.810985	5138.239258
1.811069	5234.128418
1.811152	5378.339355
1.811235	5306.810059
1.811319	5410.061523
1.811402	5048.572754
1.811486	5374.855469
1.811569	5336.820313
1.811652	5321.092285
1.811736	5327.661133
1.811819	5568.250000
1.811903	5385.359863
1.811986	5302.791992
1.812070	5405.892578
1.812153	5304.786621
1.812237	5363.313477
1.812320	5451.509766
1.812404	5428.364258
1.812487	5405.226074
1.812571	5508.209473
1.812654	5351.554688
1.812738	5439.680664
1.812822	5512.948730
1.812905	5437.919434
1.812989	5336.970703
1.813072	5517.682129
1.813156	5275.961914
1.813240	5419.580078
1.813323	5366.849121
1.813407	5525.218750
1.813491	5661.321777
1.813575	5390.156738
1.813658	5359.672363
1.813742	5510.539063
1.813826	5402.339844
1.813910	5523.553223
1.813993	5559.649414
1.814077	5518.066406
1.814161	5550.453613
1.814245	5616.105469
1.814329	5559.746582
1.814413	5629.071289
1.814497	5598.596680
1.814580	5712.230469
1.814664	5408.377441
1.814748	5440.745117
1.814832	5521.111328
1.814916	5527.602539
1.815000	5530.399902
1.815084	5588.564941
1.815168	5609.804199
1.815252	5531.404785
1.815336	5674.398926
1.815420	5529.614746
1.815504	5547.161133
1.815588	5594.203125
1.815672	5711.284180
1.815756	5599.765625
1.815840	5624.660645
1.815925	5749.049805
1.816009	5821.813477
1.816093	5728.769043
1.816177	5624.704102
1.816261	5690.085938
1.816345	5611.836914
1.816429	5655.109375
1.816514	5551.123047
1.816598	5660.640137
1.816682	5770.122070
1.816766	5585.222168
1.816851	5867.581055
1.816935	5774.678223
1.817019	5795.809082
1.817104	5769.132813
1.817188	5878.489746
1.817272	5712.129883
1.817356	5814.110352
1.817441	5838.891602
1.817525	5724.053711
1.817610	5884.756348
1.817694	5722.201660
1.817778	5713.931641
1.817863	5632.232422
1.817947	5778.161621
1.818032	5927.713379
1.818116	5853.358398
1.818201	5845.073242
1.818285	5719.394043
1.818370	5744.145508
1.818454	5684.537109
1.818539	5914.629395
1.818623	5943.002930
1.818708	5850.399902
1.818792	5904.429688
1.818877	5866.830078
1.818961	5752.300781
1.819046	6048.097168
1.819131	5732.126953
1.819215	6071.775879
1.819300	5869.410645
1.819385	5941.679688
1.819469	5937.058594
1.819554	6027.591797
1.819639	5993.685059
1.819723	5835.397949
1.819808	6075.879883
1.819893	5939.574707
1.819978	5931.300781
1.820063	5849.905273
1.820147	5976.905273
1.820232	6096.554199
1.820317	5912.847656
1.820402	5860.738281
1.820487	5994.959961
1.820571	5899.021973
1.820656	5982.065430
1.820741	6141.762695
1.820826	5939.971680
1.820911	5730.945313
1.820996	5832.210449
1.821081	6061.161133
1.821166	6056.532715
1.821251	6102.976563
1.821336	5835.734375
1.821421	6049.949219
1.821506	6114.602051
1.821591	6168.296875
1.821676	5985.051270
1.821761	6107.992676
1.821846	5968.541016
1.821931	6000.365234
1.822016	6035.821777
1.822101	6063.982422
1.822186	6157.679688
1.822272	5949.155762
1.822357	6173.890625
1.822442	6089.180176
1.822527	6080.917969
1.822612	6003.526367
1.822697	6111.693848
1.822783	5921.564941
1.822868	5949.702148
1.822953	6123.275391
1.823038	6140.463867
1.823124	6233.980957
1.823209	6076.694824
1.823294	6199.261719
1.823380	6249.125000
1.823465	6215.421875
1.823550	6199.889160
1.823636	5991.894531
1.823721	6281.395508
1.823806	6138.799805
1.823892	6174.104492
1.823977	5969.877441
1.824063	6041.482910
1.824148	6171.112305
1.824233	6217.270996
1.824319	6339.576172
1.824404	6287.785645
1.824490	6156.248535
1.824575	6227.753906
1.824661	6223.123047
1.824746	6211.246582
1.824832	6134.154785
1.824918	6307.051270
1.825003	6200.992188
1.825089	6221.719727
1.825174	6173.642578
1.825260	6306.597168
1.825346	6222.324707
1.825431	6246.653320
1.825517	6223.933105
1.825603	6085.444336
1.825688	6287.035645
1.825774	6340.271973
1.825860	6263.307129
1.825945	6200.829590
1.826031	6442.037109
1.826117	6249.429199
1.826203	6317.083984
1.826288	6211.277832
1.826374	6239.176270
1.826460	6303.187012
1.826546	6302.168945
1.826632	6362.537598
1.826717	6318.185547
1.826803	6313.555176
1.826889	6406.375488
1.826975	6289.864258
1.827061	6342.969727
1.827147	6305.870605
1.827233	6344.527832
1.827319	6242.526367
1.827405	6407.382324
1.827491	6409.952637
1.827577	6563.913574
1.827663	6270.931152
1.827749	6406.847656
1.827835	6304.934570
1.827921	6581.288574
1.828007	6414.549805
1.828093	6355.896973
1.828179	6300.863281
1.828265	6278.246094
1.828351	6439.202637
1.828438	6323.002930
1.828524	6523.479492
1.828610	6396.510742
1.828696	6388.283691
1.828782	6282.956055
1.828868	6458.138184
1.828955	6485.857910
1.829041	6509.973145
1.829127	6447.822754
1.829213	6292.260254
1.829300	6384.661133
1.829386	6660.242188
1.829472	6422.109375
1.829558	6478.531738
1.829645	6513.392090
1.829731	6404.639648
1.829818	6360.532227
1.829904	6373.860840
1.829990	6602.483887
1.830077	6518.900391
1.830163	6621.875000
1.830250	6527.555664
1.830336	6483.470215
1.830422	6446.569336
1.830509	6445.528809
1.830595	6526.926270
1.830682	6464.950684
1.830768	6334.915527
1.830855	6462.863770
1.830941	6551.369141
1.831028	6453.615234
1.831115	6524.189453
1.831201	6433.631348
1.831288	6396.796387
1.831374	6560.400391
1.831461	6587.969727
1.831547	6390.122070
1.831634	6607.307617
1.831721	6441.710938
1.831807	6526.499512
1.831894	6471.812500
1.831981	6377.817871
1.832068	6466.149414
1.832154	6575.895508
1.832241	6599.847656
1.832328	6416.574707
1.832415	6476.265625
1.832501	6532.365234
1.832588	6538.453125
1.832675	6576.672363
1.832762	6529.203613
1.832849	6574.550293
1.832936	6648.431641
1.833022	6618.813965
1.833109	6293.102051
1.833196	6484.701660
1.833283	6547.850098
1.833370	6589.583008
1.833457	6613.476563
1.833544	6673.008301
1.833631	6629.163086
1.833718	6531.879395
1.833805	6577.143555
1.833892	6547.583496
1.833979	6500.224609
1.834066	6702.163574
1.834153	6476.763672
1.834240	6554.039551
1.834327	6520.947266
1.834414	6722.752441
1.834501	6533.077148
1.834589	6628.082031
1.834676	6648.355957
1.834763	6778.877930
1.834850	6695.995605
1.834937	6630.917480
1.835024	6487.652832
1.835111	6721.190430
1.835199	6471.345215
1.835286	6708.363281
1.835373	6487.020996
1.835461	6510.838379
1.835548	6484.928223
1.835635	6604.611816
1.835722	6543.191895
1.835810	6513.738770
1.835897	6714.989746
1.835984	6657.129395
1.836072	6883.127930
1.836159	6647.887207
1.836246	6579.424805
1.836334	6695.391113
1.836421	6577.302734
1.836509	6856.308594
1.836596	6624.805664
1.836684	6730.057129
1.836771	6689.994141
1.836859	6660.572754
1.836946	6666.583008
1.837034	6605.298828
1.837121	6515.705078
1.837209	6539.438477
1.837296	6655.204102
1.837384	6760.313965
1.837471	6660.135742
1.837559	6733.365723
1.837647	6562.469727
1.837734	6869.143555
1.837822	6730.109375
1.837910	6658.303711
1.837997	6699.655762
1.838085	6627.877930
1.838173	6584.397949
1.838260	6597.471191
1.838348	6667.070801
1.838436	6718.984375
1.838524	6608.408691
1.838611	6745.069824
1.838699	6606.277832
1.838787	6848.804199
1.838875	6717.099609
1.838963	6581.908203
1.839051	6743.163086
1.839138	6653.875000
1.839226	6853.867676
1.839314	6708.160156
1.839402	6446.130371
1.839490	6857.604980
1.839578	6637.937500
1.839666	6654.490723
1.839754	6656.941895
1.839842	6599.493164
1.839930	6725.254395
1.840018	6734.737305
1.840106	6934.393555
1.840194	6626.930176
1.840282	6826.538574
1.840370	6888.799805
1.840458	6669.479492
1.840546	6619.139160
1.840634	6561.778320
1.840722	6715.504395
1.840810	6717.939453
1.840898	6643.006348
1.840987	6884.547363
1.841075	6802.580078
1.841163	6822.573242
1.841251	6666.839844
1.841339	6676.306641
1.841428	6773.602539
1.841516	6737.383789
1.841604	6788.979980
1.841692	6798.420898
1.841781	6804.347168
1.841869	6782.187500
1.841957	6689.837891
1.842046	6797.548340
1.842134	6736.804199
1.842222	6721.685547
1.842311	6710.079590
1.842399	6656.392578
1.842487	6700.904297
1.842576	6840.061523
1.842664	6674.207031
1.842753	6750.237305
1.842841	6756.157715
1.842930	6548.353027
1.843018	6708.440430
1.843107	6703.856934
1.843195	6748.302246
1.843284	6645.673828
1.843372	6714.620117
1.843461	6640.032227
1.843549	6677.458984
1.843638	6966.812988
1.843726	6822.248047
1.843815	6688.224121
1.843904	6676.653809
1.843992	6766.497559
1.844081	6810.859375
1.844170	6697.897461
1.844258	6759.731934
1.844347	6762.137695
1.844436	6789.000977
1.844525	6707.556152
1.844613	6825.235840
1.844702	6698.410156
1.844791	6676.379883
1.844880	6807.972656
1.844968	6754.515137
1.845057	7036.128418
1.845146	6762.807617
1.845235	6831.498535
1.845324	6704.813477
1.845412	6483.996094
1.845501	6758.450684
1.845590	6764.335449
1.845679	6909.666504
1.845768	6765.641602
1.845857	6869.104492
1.845946	6798.307617
1.846035	6724.049316
1.846124	6761.283203
1.846213	6815.919434
1.846302	6776.516602
1.846391	6730.162598
1.846480	6788.258301
1.846569	6741.916992
1.846658	6678.190430
1.846747	6781.499023
1.846836	6658.644531
1.846925	6713.225586
1.847015	6858.211914
1.847104	6718.017578
1.847193	6602.205078
1.847282	6698.473145
1.847371	6742.576172
1.847460	6696.315430
1.847550	6771.674316
1.847639	6600.363770
1.847728	6814.646484
1.847817	6817.021484
1.847907	6666.619141
1.847996	6686.375488
1.848085	6640.174316
1.848175	6795.278320
1.848264	6804.593750
1.848353	6824.314453
1.848442	6674.054688
1.848532	6752.750488
1.848621	6550.535156
1.848711	6910.065430
1.848800	6843.086914
1.848889	6848.916992
1.848979	6813.159180
1.849068	6763.552734
1.849158	6769.392578
1.849247	6802.940430
1.849337	6805.308105
1.849426	6894.242676
1.849516	6841.200195
1.849605	6867.791016
1.849695	6717.860840
1.849785	6716.778809
1.849874	6739.916992
1.849964	6745.750000
1.850053	6779.251953
1.850143	6861.158203
1.850233	6828.934082
1.850322	6765.605957
1.850412	6812.908691
1.850502	6704.675293
1.850591	6624.120117
1.850681	6705.971191
1.850771	6770.523926
1.850861	6683.088867
1.850950	6771.796875
1.851040	6884.645020
1.851130	6583.201660
1.851220	6664.979492
1.851310	6839.907715
1.851399	6856.059082
1.851489	6737.658203
1.851579	6750.371094
1.851669	6828.606445
1.851759	6693.025391
1.851849	6878.122559
1.851939	6742.577637
1.852029	6900.034180
1.852119	6671.486328
1.852208	6856.466797
1.852298	6662.448242
1.852389	6909.369141
1.852479	6846.268066
1.852569	6748.755371
1.852659	6737.340820
1.852749	6774.119629
1.852839	6645.690430
1.852929	6610.210449
1.853019	6722.681641
1.853109	6804.157715
1.853199	6844.334473
1.853289	6671.291992
1.853379	6807.748535
1.853470	6768.837891
1.853560	6564.956055
1.853650	6632.631348
1.853740	6683.104492
1.853830	6499.947266
1.853921	6629.428711
1.854011	6590.583496
1.854101	6716.574219
1.854191	6770.425293
1.854282	6594.266602
1.854372	6744.220703
1.854462	6801.472656
1.854553	6697.445801
1.854643	6764.978027
1.854733	6575.240723
1.854824	6505.594238
1.854914	6778.855957
1.855004	6753.766602
1.855095	6817.806641
1.855185	6737.883789
1.855276	6716.239258
1.855366	6691.175293
1.855457	6566.778809
1.855547	6856.846680
1.855638	6602.333984
1.855728	6686.868652
1.855819	6637.865234
1.855909	6677.870605
1.856000	6810.263184
1.856091	6798.901855
1.856181	6664.383301
1.856272	6793.292969
1.856362	6734.059082
1.856453	6531.225098
1.856544	6714.796875
1.856634	6535.959961
1.856725	6852.767090
1.856816	6735.476074
1.856907	6693.391113
1.856997	6559.082520
1.857088	6803.953125
1.857179	6676.499512
1.857270	6726.643066
1.857360	6732.388672
1.857451	6676.689941
1.857542	6658.551270
1.857633	6759.849609
1.857724	6680.290527
1.857815	6437.017090
1.857905	6640.623047
1.857996	6489.507813
1.858087	6566.884277
1.858178	6674.916992
1.858269	6588.630371
1.858360	6577.346191
1.858451	6600.139648
1.858542	6643.366699
1.858633	6696.798340
1.858724	6579.924805
1.858815	6633.349609
1.858906	6574.402832
1.858997	6709.509277
1.859088	6623.340332
1.859179	6608.662598
1.859270	6488.512695
1.859362	6732.406738
1.859453	6622.479492
1.859544	6505.785645
1.859635	6593.145996
1.859726	6571.687012
1.859817	6468.653809
1.859909	6511.795410
1.860000	6554.922363
1.860091	6502.904785
1.860182	6518.843262
1.860273	6609.498535
1.860365	6550.704590
1.860456	6451.185059
1.860547	6562.175781
1.860639	6632.399414
1.860730	6454.858887
1.860821	6535.256348
1.860913	6456.174316
1.861004	6723.110352
1.861096	6538.885254
1.861187	6548.006348
1.861278	6502.876953
1.861370	6559.458984
1.861461	6578.739746
1.861553	6533.626465
1.861644	6383.491699
1.861736	6433.280273
1.861827	6608.378418
1.861919	6563.289063
1.862010	6545.302734
1.862102	6476.538574
1.862193	6448.416504
1.862285	6430.457031
1.862376	6618.921387
1.862468	6624.623047
1.862560	6518.689941
1.862651	6453.377930
1.862743	6394.850098
1.862835	6569.643066
1.862926	6609.153809
1.863018	6357.963379
1.863110	6383.976563
1.863201	6497.835938
1.863293	6490.033691
1.863385	6529.524414
1.863477	6460.926270
1.863569	6456.510254
1.863660	6499.363281
1.863752	6420.675293
1.863844	6541.149902
1.863936	6388.237793
1.864028	6444.569824
1.864120	6271.480957
1.864212	6516.703613
1.864303	6374.010254
1.864395	6396.588379
1.864487	6328.131348
1.864579	6212.503906
1.864671	6528.314941
1.864763	6459.869141
1.864855	6290.368164
1.864947	6339.886230
1.865039	6423.070313
1.865131	6445.610352
1.865223	6279.586914
1.865315	6433.437012
1.865408	6466.062012
1.865500	6266.460938
1.865592	6235.168457
1.865684	6378.833008
1.865776	6367.715332
1.865868	6390.234375
1.865960	6372.392578
1.866053	6314.209961
1.866145	6323.279297
1.866237	6194.539551
1.866329	6159.937500
1.866421	6172.386719
1.866514	5986.621582
1.866606	6220.785156
1.866698	6209.709473
1.866791	6302.730957
1.866883	6204.354492
1.866975	6327.558105
1.867068	6235.921387
1.867160	6312.099609
1.867252	6156.746094
1.867345	6128.918945
1.867437	6121.224609
1.867530	6200.725586
1.867622	6307.024414
1.867715	6232.255859
1.867807	6170.918457
1.867900	6216.845215
1.867992	6118.670410
1.868085	6131.087402
1.868177	6183.697754
1.868270	6172.655273
1.868362	6248.682617
1.868455	6234.285156
1.868547	6005.643555
1.868640	6208.850098
1.868733	6027.137695
1.868825	6193.468750
1.868918	6001.780762
1.869011	6295.169434
1.869103	6053.360352
1.869196	6266.394043
1.869289	6145.026367
1.869381	6120.638672
1.869474	6183.156738
1.869567	6202.212402
1.869660	6084.273926
1.869752	6273.711426
1.869845	5915.312012
1.869938	6034.584961
1.870031	6137.124023
1.870124	6082.721191
1.870216	5988.280273
1.870309	5980.642090
1.870402	6226.608887
1.870495	6122.181152
1.870588	6204.591309
1.870681	6120.211914
1.870774	5892.465820
1.870867	6228.271484
1.870960	6110.591797
1.871053	6029.614258
1.871146	6221.934570
1.871239	5981.026367
1.871332	5873.456055
1.871425	6112.341797
1.871518	5928.184082
1.871611	5960.529785
1.871704	5999.523926
1.871797	5971.928223
1.871891	5994.265625
1.871984	5993.301758
1.872077	5959.065430
1.872170	5984.720703
1.872263	5893.952148
1.872356	5979.470215
1.872450	5985.158691
1.872543	5801.345703
1.872636	6049.713867
1.872729	5852.655762
1.872823	5878.297852
1.872916	5844.128418
1.873009	5896.338379
1.873103	5955.174805
1.873196	5871.196289
1.873289	5863.611816
1.873383	5792.954102
1.873476	5908.194824
1.873569	5923.837891
1.873663	5803.432129
1.873756	5789.228516
1.873850	5765.077637
1.873943	5774.100586
1.874037	5796.383789
1.874130	5755.666016
1.874224	5830.983887
1.874317	5995.766602
1.874411	5994.802246
1.874504	5970.645020
1.874598	5919.992676
1.874691	5677.244141
1.874785	5732.630859
1.874879	5761.509766
1.874972	5813.554199
1.875066	5845.720703
1.875160	5762.040527
1.875253	5916.640625
1.875347	5730.410156
1.875441	5765.876953
1.875534	5688.877441
1.875628	5648.279297
1.875722	5855.675293
1.875816	5871.263184
1.875909	5857.097656
1.876003	5780.144531
1.876097	5716.433594
1.876191	5758.463379
1.876285	5754.233887
1.876378	5740.097656
1.876472	5676.433594
1.876566	5787.776367
1.876660	5621.790039
1.876754	5683.597168
1.876848	5877.385742
1.876942	5635.576172
1.877036	5667.659668
1.877130	5637.062012
1.877224	5688.922363
1.877318	5625.356934
1.877412	5710.170898
1.877506	5508.176270
1.877600	5652.305664
1.877694	5601.967773
1.877788	5634.014160
1.877882	5656.167969
1.877976	5526.804688
1.878070	5710.332520
1.878165	5597.464844
1.878259	5639.361816
1.878353	5638.455078
1.878447	5571.727539
1.878541	5557.669434
1.878635	5652.185547
1.878730	5592.066406
1.878824	5581.300293
1.878918	5609.998047
1.879012	5579.505371
1.879107	5512.861328
1.879201	5623.726563
1.879295	5353.347168
1.879390	5447.772949
1.879484	5463.323242
1.879578	5393.465820
1.879673	5540.386230
1.879767	5414.716797
1.879862	5505.773438
1.879956	5478.627441
1.880050	5458.054199
1.880145	5476.865234
1.880239	5387.397949
1.880334	5314.361328
1.880428	5346.306152
1.880523	5388.078613
1.880617	5551.156738
1.880712	5212.592773
1.880807	5457.592285
1.880901	5509.151367
1.880996	5531.203125
1.881090	5392.710938
1.881185	5457.358398
1.881280	5322.197266
1.881374	5383.560547
1.881469	5513.660645
1.881564	5280.347168
1.881658	5099.477539
1.881753	5416.096680
1.881848	5454.490234
1.881943	5312.937988
1.882037	5357.877441
1.882132	5288.336426
1.882227	5159.958496
1.882322	5306.251953
1.882416	5236.751953
1.882511	5373.181152
1.882606	5320.031738
1.882701	5495.610840
1.882796	5236.651367
1.882891	5190.081543
1.882986	5290.484863
1.883081	5305.959961
1.883176	5112.490723
1.883271	5183.479980
1.883365	5274.028320
1.883461	5083.919922
1.883555	5246.231445
1.883650	5163.836426
1.883746	5032.544922
1.883841	5266.527832
1.883936	5324.369629
1.884031	5092.056641
1.884126	5084.718750
1.884221	5103.454590
1.884316	5037.466309
1.884411	5290.769531
1.884506	5162.882324
1.884602	5126.227539
1.884697	4988.638672
1.884792	5085.509766
1.884887	4960.992676
1.884982	5093.638184
1.885078	5034.243652
1.885173	5218.893555
1.885268	5016.358887
1.885363	5126.141602
1.885459	4978.972656
1.885554	5056.209961
1.885649	5087.907227
1.885745	4947.316406
1.885840	4985.520996
1.885936	4981.469727
1.886031	5084.635742
1.886126	4901.904785
1.886222	5053.769043
1.886317	4949.039551
1.886413	5130.068848
1.886508	4901.999023
1.886604	5018.061035
1.886699	4936.121094
1.886795	4964.530273
1.886890	5025.373047
1.886986	4911.033691
1.887082	4770.785645
1.887177	4997.007324
1.887273	4856.790039
1.887368	4930.567383
1.887464	4826.058105
1.887560	4822.041504
1.887655	4837.466309
1.887751	4771.896973
1.887847	4696.631348
1.887942	4763.885254
1.888038	4789.023438
1.888134	4859.478027
1.888230	4829.563965
1.888325	4786.713379
1.888421	4912.145020
1.888517	4859.588379
1.888613	4852.336914
1.888709	4848.322266
1.888804	4756.995117
1.888900	4772.396484
1.888996	4765.163574
1.889092	4667.428711
1.889188	4773.326172
1.889284	4856.571289
1.889380	4729.791504
1.889476	4654.736328
1.889572	4699.203613
1.889668	4717.822754
1.889764	4700.920898
1.889860	4661.427246
1.889956	4809.147949
1.890052	4621.203125
1.890148	4785.015137
1.890244	4777.793457
1.890340	4660.905762
1.890436	4611.780762
1.890532	4656.182129
1.890628	4787.616699
1.890725	4616.003418
1.890821	4470.228516
1.890917	4585.517090
1.891013	4494.565918
1.891109	4600.148926
1.891206	4589.746582
1.891302	4537.482910
1.891398	4594.710449
1.891495	4523.146484
1.891591	4561.044434
1.891687	4679.387695
1.891783	4549.924316
1.891880	4584.582520
1.891976	4677.130371
1.892072	4602.405273
1.892169	4563.076660
1.892265	4424.089844
1.892362	4487.671875
1.892458	4490.164551
1.892555	4550.500977
1.892651	4469.441406
1.892748	4401.258301
1.892844	4397.338379
1.892941	4576.478516
1.893037	4476.200195
1.893134	4424.111816
1.893230	4545.380859
1.893327	4560.697266
1.893423	4598.471680
1.893520	4434.100586
1.893616	4343.564453
1.893713	4342.866211
1.893810	4399.892090
1.893906	4479.344727
1.894003	4507.477051
1.894100	4179.804199
1.894197	4422.701172
1.894293	4332.268555
1.894390	4302.737305
1.894487	4478.227051
1.894584	4432.667969
1.894680	4355.100098
1.894777	4322.382324
1.894874	4324.888184
1.894971	4298.586914
1.895068	4310.696289
1.895165	4297.204102
1.895262	4302.911621
1.895358	4177.471191
1.895455	4282.338379
1.895552	4310.428711
1.895649	4354.495117
1.895746	4238.716797
1.895843	4228.446777
1.895940	4256.526855
1.896037	4255.842285
1.896134	4197.655762
1.896231	4228.920898
1.896328	4295.305176
1.896425	4214.788574
1.896523	4210.918457
1.896620	4296.424805
1.896717	4231.904297
1.896814	4202.504883
1.896911	4173.114746
1.897008	4178.823242
1.897105	4267.455566
1.897203	4113.701172
1.897300	4307.531738
1.897397	4102.813965
1.897494	4153.152344
1.897591	4206.661133
1.897689	4142.257324
1.897786	4138.405273
1.897883	4175.963379
1.897981	4156.183105
1.898078	4219.200684
1.898175	4081.618896
1.898273	4195.560547
1.898370	4175.789063
1.898468	4143.294922
1.898565	4148.991699
1.898662	4024.256348
1.898760	4071.319824
1.898857	4048.403564
1.898955	4025.494629
1.899052	4056.638916
1.899150	4027.378418
1.899247	4042.621338
1.899345	3975.240479
1.899442	4057.206543
1.899540	3865.956299
1.899638	3963.793945
1.899735	4023.492920
1.899833	4057.771729
1.899930	4041.246094
1.900028	4053.292480
1.900126	3954.260010
1.900223	4010.738770
1.900321	3860.984131
1.900419	3965.040283
1.900517	4002.460693
1.900614	3903.515381
1.900712	3953.615479
1.900810	3978.339600
1.900908	3812.886475
1.901006	4094.311523
1.901103	3875.029053
1.901201	3963.108398
1.901299	3933.963867
1.901397	3971.334229
1.901495	4008.692627
1.901593	3738.945068
1.901691	3918.771484
1.901789	3946.625244
1.901887	3904.853271
1.901984	3885.241943
1.902083	3789.715820
1.902181	3836.549072
1.902279	3848.581299
1.902377	3841.638428
1.902475	3913.731201
1.902573	3774.025146
1.902671	3880.868896
1.902769	3851.806152
1.902867	3848.027344
1.902965	3793.708740
1.903063	3815.206543
1.903161	3757.752686
1.903260	3776.091797
1.903358	3844.933105
1.903456	3815.908203
1.903554	3752.179443
1.903653	3720.023438
1.903751	3798.293213
1.903849	3810.298828
1.903947	3683.537354
1.904045	3673.485107
1.904144	3553.091553
1.904242	3810.999756
1.904341	3703.229248
1.904439	3677.424072
1.904537	3771.352539
1.904636	3742.394287
1.904734	3666.200439
1.904832	3697.102051
1.904931	3598.899414
1.905029	3670.727539
1.905128	3685.875000
1.905226	3697.870605
1.905325	3779.087646
1.905423	3699.826660
1.905522	3670.921143
1.905620	3500.495117
1.905719	3622.571045
1.905818	3603.123535
1.905916	3545.959473
1.906015	3649.110352
1.906114	3651.665771
1.906212	3519.111572
1.906311	3553.102539
1.906410	3565.094971
1.906508	3523.694336
1.906607	3538.827637
1.906706	3701.513916
1.906804	3569.079102
1.906903	3577.920410
1.907002	3611.863037
1.907101	3576.769043
1.907200	3435.028076
1.907298	3625.802246
1.907397	3537.410645
1.907496	3458.454102
1.907595	3498.652588
1.907694	3557.644775
1.907793	3610.350098
1.907892	3531.432129
1.907991	3480.736328
1.908090	3514.633301
1.908188	3564.179199
1.908288	3432.084229
1.908386	3447.186768
1.908486	3449.762451
1.908584	3555.625732
1.908684	3526.888672
1.908783	3457.484375
1.908882	3397.487549
1.908981	3484.522949
1.909080	3440.178223
1.909179	3599.098145
1.909278	3332.772461
1.909377	3444.769531
1.909477	3478.594727
1.909576	3324.914063
1.909675	3536.839111
1.909774	3392.570068
1.909873	3404.517578
1.909973	3335.265869
1.910072	3428.401123
1.910171	3490.287598
1.910271	3511.575684
1.910370	3370.570068
1.910469	3348.184814
1.910568	3291.488037
1.910668	3375.181885
1.910767	3306.022949
1.910867	3321.083008
1.910966	3392.259766
1.911065	3394.831299
1.911165	3356.882324
1.911264	3378.156738
1.911364	3390.076416
1.911463	3324.107910
1.911563	3376.525879
1.911662	3425.812500
1.911762	3272.681152
1.911862	3390.462646
1.911961	3312.095215
1.912061	3271.101318
1.912160	3273.686768
1.912260	3360.278076
1.912359	3322.406738
1.912459	3324.982422
1.912559	3268.469727
1.912659	3152.896973
1.912758	3301.615234
1.912858	3316.625488
1.912958	3415.543457
1.913057	3324.880127
1.913157	3234.245850
1.913257	3236.831543
1.913357	3195.934326
1.913457	3297.896973
1.913556	3182.486084
1.913656	3194.391357
1.913756	3184.565430
1.913856	3255.430176
1.913956	3344.889404
1.914056	3229.563477
1.914156	3272.469727
1.914256	3271.942871
1.914356	3159.784912
1.914456	3174.778076
1.914556	3140.168457
1.914656	3164.458008
1.914756	3256.914795
1.914856	3231.603516
1.914956	3141.244873
1.915056	3236.757813
1.915156	3056.617920
1.915256	3186.173828
1.915356	3170.181396
1.915456	3222.292480
1.915557	3224.868652
1.915657	3106.762939
1.915757	3189.797607
1.915857	3155.256836
1.915957	3046.497803
1.916057	3219.181396
1.916158	3156.825195
1.916258	3143.951416
1.916358	3059.990967
1.916458	3124.396729
1.916559	3157.882568
1.916659	3259.324707
1.916759	3227.910889
1.916860	3097.677734
1.916960	3078.651611
1.917061	3090.505615
1.917161	3071.486572
1.917262	3145.066162
1.917362	3089.013184
1.917462	3054.575928
1.917563	3183.651367
1.917663	3167.716553
1.917764	3161.038574
1.917864	3135.862305
1.917965	3039.785889
1.918066	3137.934814
1.918166	3075.790527
1.918267	3106.109863
1.918367	3154.905029
1.918468	3006.534668
1.918569	3153.889160
1.918669	3134.904541
1.918770	2900.397461
1.918871	3023.069580
1.918971	2951.789307
1.919072	3049.793701
1.919173	3089.303467
1.919273	3113.417969
1.919374	3115.992676
1.919475	2970.941895
1.919576	3028.888916
1.919677	3000.730469
1.919777	3083.245850
1.919878	2929.072754
1.919979	2931.674316
1.920080	3041.813477
1.920181	2943.018311
1.920282	3010.118408
1.920383	3040.344238
1.920484	3128.900879
1.920585	2947.262939
1.920686	3026.597168
1.920787	3047.593506
1.920888	3056.308350
1.920989	3061.952393
1.921090	2951.025879
1.921191	2947.483398
1.921292	3035.940430
1.921393	2986.393555
1.921494	2912.337646
1.921595	2970.105957
1.921696	3089.148438
1.921798	2901.738525
1.921899	2968.671143
1.922000	2965.129883
1.922101	2881.960693
1.922202	3098.910156
1.922304	2939.204102
1.922405	2843.834229
1.922506	2883.165039
1.922607	2876.580322
1.922709	2958.728760
1.922810	2942.956299
1.922911	2908.836426
1.923013	2880.843750
1.923114	2917.072510
1.923216	2956.346680
1.923317	2943.643555
1.923418	2973.731934
1.923520	2927.416504
1.923621	2917.779053
1.923723	2932.583008
1.923824	2987.087646
1.923926	2931.638428
1.924027	2946.432617
1.924129	2897.113037
1.924230	2841.704590
1.924332	2877.868896
1.924433	2901.815918
1.924535	2950.161865
1.924637	2772.766357
1.924738	2906.513428
1.924840	2951.785645
1.924942	2878.137207
1.925043	2853.286377
1.925145	2813.204102
1.925247	2864.556641
1.925348	2647.764648
1.925450	2848.401855
1.925552	2899.723633
1.925654	2777.438965
1.925756	2804.395996
1.925857	2679.121582
1.925959	2745.656982
1.926061	2888.258057
1.926163	2790.417236
1.926265	2875.157471
1.926367	2819.938232
1.926468	2919.853760
1.926570	2888.973145
1.926672	2800.332031
1.926774	2830.281494
1.926876	2723.440918
1.926978	2820.252197
1.927080	2871.453613
1.927182	2792.000732
1.927284	2867.490723
1.927386	2727.321777
1.927488	2814.944092
1.927591	2759.840332
1.927693	2798.858887
1.927795	2749.845459
1.927897	2743.333008
1.927999	2897.633789
1.928101	2778.853271
1.928203	2802.670898
1.928306	2850.742676
1.928408	2801.767822
1.928510	2777.062500
1.928612	2700.833984
1.928715	2821.628662
1.928817	2766.629395
1.928919	2751.034668
1.929022	2696.064209
1.929124	2665.341553
1.929226	2831.468994
1.929329	2806.790283
1.929431	2745.791260
1.929533	2772.590332
1.929636	2741.879883
1.929738	2608.299805
1.929841	2810.579834
1.929943	2692.156006
1.930046	2728.015137
1.930148	2694.312256
1.930251	2775.510742
1.930353	2711.581543
1.930456	2804.840576
1.930558	2683.509766
1.930661	2791.850586
1.930764	2752.127686
1.930866	2718.458496
1.930969	2627.419678
1.931072	2687.386963
1.931174	2620.534668
1.931277	2734.817627
1.931380	2782.666016
1.931482	2727.900879
1.931585	2730.478271
1.931688	2748.137695
1.931791	2714.517334
1.931893	2720.111084
1.931996	2701.581543
1.932099	2728.278320
1.932202	2685.639893
1.932305	2736.439697
1.932407	2651.628662
1.932510	2762.672119
1.932613	2771.263428
1.932716	2656.369873
1.932819	2761.336182
1.932922	2745.837158
1.933025	2736.363525
1.933128	2766.020508
1.933231	2765.574707
1.933334	2584.598145
1.933437	2611.256592
1.933540	2661.969482
1.933643	2670.562500
1.933746	2736.283936
1.933849	2735.842773
1.933953	2660.253174
1.934056	2605.726074
1.934159	2650.380615
1.934262	2686.007080
1.934365	2694.585938
1.934468	2625.070557
1.934572	2618.641357
1.934675	2702.290283
1.934778	2530.737061
1.934881	2707.422119
1.934985	2727.993164
1.935088	2682.544189
1.935191	2556.106445
1.935295	2630.685303
1.935398	2651.255127
1.935501	2689.810303
1.935605	2656.396484
1.935708	2503.085205
1.935812	2613.578857
1.935915	2667.098633
1.936018	2756.556152
1.936122	2627.293457
1.936225	2674.794434
1.936329	2617.461670
1.936432	2670.937500
1.936536	2706.432861
1.936639	2574.288574
1.936743	2597.816406
1.936847	2660.237549
1.936950	2629.889404
1.937054	2602.542480
1.937157	2643.996094
1.937261	2736.273926
1.937365	2634.173340
1.937468	2621.790527
1.937572	2711.038086
1.937676	2656.807129
1.937779	2593.629639
1.937883	2664.912842
1.937987	2649.547607
1.938091	2661.066650
1.938195	2768.137939
1.938298	2573.624756
1.938402	2686.645752
1.938506	2572.794434
1.938610	2649.968750
1.938714	2557.045898
1.938818	2577.516113
1.938922	2705.358887
1.939026	2555.808594
1.939130	2597.141602
1.939234	2605.666504
1.939337	2655.920166
1.939442	2655.491943
1.939546	2628.244629
1.939650	2586.109131
1.939754	2648.249023
1.939858	2647.821777
1.939962	2528.276855
1.940066	2685.674561
1.940170	2601.885742
1.940274	2631.230957
1.940378	2535.573730
1.940482	2532.188965
1.940587	2555.581055
1.940691	2635.482422
1.940795	2635.057373
1.940899	2601.922363
1.941004	2542.039551
1.941108	2610.000732
1.941212	2588.774414
1.941316	2594.300049
1.941421	2685.989502
1.941525	2620.199707
1.941629	2622.747070
1.941734	2515.411377
1.941838	2663.471191
1.941943	2562.101074
1.942047	2567.624268
1.942152	2579.081543
1.942256	2638.013184
1.942360	2664.289795
1.942465	2613.430420
1.942569	2666.395752
1.942674	2585.897705
1.942778	2781.170410
1.942883	2653.247070
1.942988	2661.710938
1.943092	2652.390869
1.943197	2539.365479
1.943301	2636.721680
1.943406	2574.091553
1.943511	2635.870605
1.943616	2579.182861
1.943720	2593.570313
1.943825	2578.350586
1.943930	2592.733154
1.944034	2657.418457
1.944139	2538.638184
1.944244	2558.936523
1.944349	2481.619873
1.944453	2569.939941
1.944558	2605.007568
1.944663	2524.764404
1.944768	2716.491699
1.944873	2597.835449
1.944978	2570.821533
1.945083	2644.268799
1.945188	2493.187256
1.945293	2534.134277
1.945397	2598.692383
1.945503	2480.169678
1.945608	2627.374512
1.945712	2632.853760
1.945818	2570.454590
1.945922	2525.779297
1.946028	2631.578857
1.946133	2684.249023
1.946238	2542.251709
1.946343	2521.199951
1.946448	2494.258301
1.946553	2543.968506
1.946658	2620.188721
1.946764	2534.306396
1.946869	2583.986084
1.946974	2515.812744
1.947079	2618.497070
1.947184	2588.624512
1.947290	2544.039307
1.947395	2543.628418
1.947500	2522.613037
1.947606	2584.010010
1.947711	2613.018555
1.947816	2571.407227
1.947922	2473.917969
1.948027	2567.635742
1.948133	2593.687256
1.948238	2516.822754
1.948343	2531.115234
1.948449	2565.977539
1.948554	2559.685547
1.948660	2521.074219
1.948765	2547.107666
1.948871	2540.821533
1.948976	2575.653809
1.949082	2563.492188
1.949187	2560.142334
1.949293	2459.922852
1.949399	2509.420654
1.949504	2412.176025
1.949610	2552.620850
1.949716	2528.739990
1.949821	2455.004150
1.949927	2516.192627
1.950033	2536.311279
1.950138	2527.106689
1.950244	2611.703369
1.950350	2494.052246
1.950456	2549.324463
1.950562	2455.159424
1.950667	2604.157715
1.950773	2524.658447
1.950879	2456.898438
1.950985	2456.501465
1.951091	2546.854736
1.951197	2405.949707
1.951303	2525.546631
1.951409	2443.210693
1.951514	2556.911377
1.951620	2565.273682
1.951726	2579.482178
1.951832	2511.810791
1.951939	2537.717773
1.952044	2470.074951
1.952150	2545.666016
1.952257	2504.343750
1.952363	2556.530518
1.952469	2523.983398
1.952575	2506.050781
1.952681	2531.928955
1.952787	2470.202637
1.952893	2469.803711
1.953000	2513.188477
1.953106	2536.129883
1.953212	2567.817871
1.953318	2453.620361
1.953424	2581.573242
1.953531	2572.406494
1.953637	2522.417236
1.953743	2478.275391
1.953850	2518.687012
1.953956	2544.511963
1.954062	2389.647949
1.954169	2546.603516
1.954275	2531.625732
1.954382	2432.181641
1.954488	2545.369141
1.954594	2556.605225
1.954701	2480.496094
1.954807	2389.856934
1.954914	2502.978027
1.955020	2499.663330
1.955127	2551.630371
1.955234	2551.218018
1.955340	2576.982666
1.955447	2582.382324
1.955553	2532.535645
1.955660	2444.911865
1.955767	2560.783691
1.955873	2554.557373
1.955980	2565.767578
1.956087	2576.973877
1.956193	2570.747559
1.956300	2596.471191
1.956407	2424.723633
1.956514	2404.008057
1.956620	2542.959717
1.956727	2449.670166
1.956834	2405.744385
1.956941	2504.006836
1.957048	2523.909424
1.957154	2491.594971
1.957261	2583.995605
1.957368	2551.681885
1.957475	2504.882813
1.957582	2487.085449
1.957689	2509.869385
1.957796	2474.690430
1.957903	2540.927979
1.958010	2517.342773
1.958117	2511.143066
1.958224	2481.778076
1.958331	2536.389893
1.958438	2483.870605
1.958545	2495.046875
1.958652	2459.915283
1.958759	2491.346436
1.958867	2563.270752
1.958974	2533.930176
1.959081	2501.706787
1.959188	2509.977295
1.959295	2466.203369
1.959403	2480.258057
1.959510	2511.650146
1.959617	2511.243896
1.959724	2528.173828
1.959832	2553.764893
1.959939	2481.141846
1.960046	2483.628418
1.960154	2500.551758
1.960261	2482.825195
1.960368	2514.175537
1.960476	2510.882813
1.960583	2545.104004
1.960690	2530.266846
1.960798	2480.818115
1.960905	2532.332520
1.961013	2563.644043
1.961120	2534.396729
1.961228	2415.791748
1.961336	2418.283203
1.961443	2507.230225
1.961551	2535.638672
1.961658	2673.513916
1.961766	2422.479980
1.961874	2479.688232
1.961981	2559.914307
1.962089	2366.602051
1.962197	2489.999512
1.962304	2604.722656
1.962412	2540.992188
1.962520	2454.264648
1.962627	2534.416748
1.962735	2611.666260
1.962843	2444.446289
1.962951	2492.931885
1.963058	2446.530273
1.963166	2449.009033
1.963274	2465.856445
1.963382	2557.409180
1.963490	2490.915771
1.963598	2599.670166
1.963706	2472.877197
1.963814	2472.477051
1.963922	2592.666260
1.964030	2474.547852
1.964138	2528.681885
1.964246	2465.137695
1.964354	2516.386475
1.964462	2435.651367
1.964570	2515.572021
1.964678	2431.995361
1.964786	2552.034912
1.964894	2451.277100
1.965002	2453.747070
1.965110	2510.671143
1.965219	2527.458496
1.965327	2515.588867
1.965435	2449.294434
1.965543	2640.799805
1.965651	2462.820313
1.965760	2425.198975
1.965868	2467.748779
1.965976	2587.568359
1.966084	2621.492188
1.966193	2423.629395
1.966301	2549.119385
1.966410	2565.869873
1.966518	2431.032715
1.966626	2582.196777
1.966735	2530.314697
1.966843	2489.884033
1.966952	2603.808350
1.967060	2526.228271
1.967169	2528.676758
1.967277	2493.985840
1.967386	2467.875000
1.967494	2510.313477
1.967603	2527.039551
1.967711	2523.775635
1.967820	2586.165771
1.967928	2554.352783
1.968037	2548.232178
1.968146	2490.757568
1.968254	2621.575684
1.968363	2581.220703
1.968472	2546.582275
1.968580	2517.657227
1.968689	2520.100342
1.968798	2519.692383
1.968907	2513.584717
1.969015	2587.262207
1.969124	2495.677002
1.969233	2492.424316
1.969342	2531.893066
1.969451	2579.891602
1.969560	2513.990479
1.969669	2479.423828
1.969777	2473.329834
1.969886	2438.780762
1.969995	2563.577148
1.970104	2474.973145
1.970213	2525.770508
1.970322	2457.108398
1.970431	2544.856201
1.970540	2513.171631
1.970649	2495.709717
1.970758	2407.202393
1.970868	2543.208008
1.970977	2474.609375
1.971086	2437.280029
1.971195	2488.008789
1.971304	2538.720947
1.971413	2470.167236
1.971522	2447.056641
1.971632	2480.720459
1.971741	2420.722900
1.971850	2474.241943
1.971959	2394.405762
1.972068	2541.516602
1.972178	2515.580322
1.972287	2432.940674
1.972396	2526.105957
1.972506	2474.672607
1.972615	2445.929443
1.972724	2403.026855
1.972834	2496.136230
1.972943	2546.723145
1.973053	2486.830322
1.973162	2458.108154
1.973272	2446.384033
1.973381	2460.142822
1.973491	2482.388428
1.973600	2459.345703
1.973710	2518.369385
1.973819	2551.911133
1.973929	2531.696777
1.974039	2460.580078
1.974148	2406.453369
1.974258	2536.120850
1.974367	2535.709961
1.974477	2586.174561
1.974587	2546.191895
1.974697	2506.222168
1.974806	2438.014893
1.974916	2542.129639
1.975026	2595.375977
1.975135	2482.008545
1.975245	2549.363281
1.975355	2585.645996
1.975465	2461.045654
1.975575	2471.934326
1.975685	2499.747314
1.975794	2493.700439
1.975904	2515.859863
1.976014	2422.391602
1.976124	2503.766113
1.976234	2475.169434
1.976344	2508.591797
1.976454	2389.821289
1.976564	2538.773438
1.976674	2510.189209
1.976784	2478.797363
1.976894	2543.171875
1.977004	2452.650635
1.977114	2559.239990
1.977224	2510.970215
1.977335	2499.304932
1.977445	2484.829346
1.977555	2461.917480
1.977665	2396.815674
1.977775	2410.490479
1.977885	2508.528564
1.977996	2510.933594
1.978106	2375.582031
1.978216	2543.849854
1.978327	2563.110352
1.978437	2399.716309
1.978547	2444.279541
1.978658	2561.863770
1.978768	2553.022461
1.978878	2471.172119
1.978989	2521.309814
1.979099	2470.370605
1.979210	2436.288574
1.979320	2441.506104
1.979430	2421.468994
1.979541	2465.963135
1.979651	2451.538330
1.979762	2496.012695
1.979872	2509.628174
1.979983	2405.488037
1.980094	2458.357666
1.980204	2418.721191
1.980315	2516.406982
1.980425	2423.540039
1.980536	2403.537842
1.980647	2489.974854
1.980757	2472.768555
1.980868	2525.566650
1.980979	2550.352539
1.981090	2510.751953
1.981200	2431.983887
1.981311	2481.956055
1.981422	2573.877197
1.981533	2475.556152
1.981644	2433.202881
1.981754	2469.160400
1.981865	2505.106201
1.981976	2515.881348
1.982087	2375.724854
1.982198	2473.147461
1.982309	2453.187744
1.982420	2427.646973
1.982531	2393.735352
1.982642	2505.054932
1.982753	2588.416016
1.982864	2481.907715
1.982975	2503.835693
1.983086	2464.356934
1.983197	2369.082031
1.983308	2483.087158
1.983419	2538.474854
1.983530	2406.976074
1.983642	2367.544678
1.983753	2495.416504
1.983864	2517.313232
1.983975	2555.926514
1.984086	2477.480713
1.984198	2566.242188
1.984309	2482.248291
1.984420	2412.208984
1.984532	2403.462402
1.984643	2422.564209
1.984754	2469.500732
1.984865	2424.561279
1.984977	2532.712646
1.985088	2501.691406
1.985200	2551.366455
1.985311	2492.533691
1.985422	2519.942871
1.985534	2438.886475
1.985645	2427.368652
1.985757	2426.974609
1.985868	2501.629395
1.985980	2409.511719
1.986091	2459.136719
1.986203	2400.394531
1.986315	2461.116211
1.986426	2396.837891
1.986538	2440.878906
1.986650	2432.153320
1.986761	2473.397949
1.986873	2470.220947
1.986985	2428.193604
1.987096	2447.221680
1.987208	2471.791748
1.987320	2524.091309
1.987432	2451.576172
1.987543	2412.358398
1.987655	2409.194336
1.987767	2450.382080
1.987879	2535.899658
1.987991	2471.754395
1.988103	2548.928955
1.988214	2426.629395
1.988326	2537.022461
1.988438	2411.995117
1.988550	2455.903809
1.988662	2461.041504
1.988774	2435.730957
1.988886	2338.475342
1.988998	2396.202148
1.989110	2417.945068
1.989222	2362.230713
1.989334	2450.347168
1.989447	2414.001709
1.989559	2430.197998
1.989671	2413.217529
1.989783	2423.880615
1.989895	2520.205322
1.990007	2373.360352
1.990119	2453.086914
1.990232	2474.784668
1.990344	2446.766602
1.990456	2382.863037
1.990568	2523.270996
1.990681	2456.615234
1.990793	2566.607666
1.990905	2428.223389
1.991018	2499.560303
1.991130	2446.743652
1.991242	2396.701904
1.991355	2432.160645
1.991467	2481.393311
1.991580	2552.663086
1.991692	2472.318115
1.991805	2394.755127
1.991917	2386.100098
1.992030	2539.984619
1.992142	2399.096680
1.992255	2484.079834
1.992367	2436.866211
1.992480	2400.680176
1.992592	2367.258301
1.992705	2457.695557
1.992818	2413.268311
1.992930	2432.135010
1.993043	2453.746338
1.993156	2403.840576
1.993269	2436.449219
1.993381	2466.297607
1.993494	2432.907959
1.993607	2405.026367
1.993720	2267.227783
1.993832	2415.235352
1.993945	2453.304443
1.994058	2469.386475
1.994171	2447.014160
1.994284	2416.411133
1.994397	2344.635742
1.994510	2256.413818
1.994623	2448.167725
1.994736	2461.490234
1.994848	2444.627930
1.994962	2416.797852
1.995075	2441.090088
1.995188	2443.435547
1.995301	2454.005859
1.995414	2390.553223
1.995527	2505.287109
1.995640	2485.695557
1.995753	2364.726074
1.995866	2282.151123
1.995979	2402.306152
1.996092	2341.662109
1.996206	2382.356445
1.996319	2340.900635
1.996432	2324.095215
1.996545	2405.827148
1.996659	2369.860596
1.996772	2350.322266
1.996885	2344.468750
1.996999	2357.763428
1.997112	2316.358398
1.997225	2387.074219
1.997339	2381.218018
1.997452	2394.498047
1.997565	2328.516357
1.997679	2385.521240
1.997792	2379.668945
1.997906	2436.646973
1.998019	2381.625977
1.998133	2427.661865
1.998246	2367.199463
1.998360	2334.055664
1.998473	2445.583252
1.998587	2355.128174
1.998700	2253.788330
1.998814	2307.983887
1.998928	2362.161621
1.999041	2443.594238
1.999155	2426.835938
1.999269	2331.019043
1.999382	2325.187988
1.999496	2338.436768
1.999610	2425.256592
1.999724	2370.370605
1.999838	2517.087402
1.999951	2233.415283
2.000065	2322.918457
2.000179	2314.372070
2.000293	2425.611572
2.000407	2319.062500
2.000521	2315.963623
2.000635	2408.101318
2.000748	2293.445068
2.000862	2418.197998
2.000976	2379.728760
2.001091	2363.025879
2.001204	2243.013672
2.001318	2335.072998
2.001432	2331.974854
2.001547	2380.509766
2.001661	2339.366699
2.001775	2252.054932
2.001889	2373.915039
2.002003	2425.126953
2.002117	2297.114746
2.002231	2321.174072
2.002346	2361.511963
2.002460	2268.853516
2.002574	2317.326904
2.002688	2295.245361
2.002802	2387.100342
2.002917	2207.708252
2.003031	2397.169922
2.003145	2315.440918
2.003260	2255.425293
2.003374	2344.501465
2.003489	2314.309814
2.003603	2327.480713
2.003717	2449.010254
2.003832	2280.675781
2.003946	2277.595947
2.004061	2285.348389
2.004175	2423.049316
2.004290	2241.293945
2.004404	2327.534912
2.004519	2308.213867
2.004633	2426.882324
2.004748	2348.038574
2.004862	2390.930908
2.004977	2344.569580
2.005092	2295.519287
2.005206	2278.925293
2.005321	2400.185059
2.005436	2229.538330
2.005550	2304.832031
2.005665	2347.681885
2.005780	2298.678711
2.005895	2292.902832
2.006010	2403.240234
2.006124	2335.353027
2.006239	2359.267090
2.006354	2334.592041
2.006469	2231.668213
2.006584	2304.152588
2.006699	2268.707764
2.006814	2349.253906
2.006928	2230.213867
2.007043	2213.672607
2.007159	2318.450928
2.007273	2347.722900
2.007388	2277.270508
2.007504	2344.263184
2.007618	2357.351807
2.007734	2330.030762
2.007849	2240.774170
2.007964	2307.729004
2.008079	2240.043701
2.008194	2175.072510
2.008309	2260.845459
2.008425	2212.038086
2.008540	2432.307129
2.008655	2445.361572
2.008770	2259.371582
2.008885	2269.760498
2.009001	2363.500244
2.009116	2279.774170
2.009231	2298.218506
2.009346	2276.343506
2.009462	2300.156250
2.009577	2262.167969
2.009693	2318.209717
2.009808	2328.574951
2.009923	2250.320313
2.010039	2225.789063
2.010154	2308.644775
2.010270	2259.955811
2.010386	2256.903564
2.010501	2248.486084
2.010617	2248.119629
2.010732	2306.763184
2.010848	2223.249756
2.010963	2241.656982
2.011079	2300.272949
2.011194	2291.856201
2.011310	2237.880371
2.011426	2261.632324
2.011541	2245.188232
2.011657	2276.967285
2.011773	2241.777588
2.011889	2179.819824
2.012004	2235.691162
2.012120	2168.400635
2.012236	2210.872559
2.012352	2285.444580
2.012468	2260.990234
2.012583	2260.621338
2.012699	2217.454834
2.012815	2308.023438
2.012931	2251.493164
2.013047	2227.063965
2.013163	2272.143555
2.013279	2306.517578
2.013395	2180.546143
2.013511	2257.672607
2.013627	2300.046143
2.013743	2240.910156
2.013859	2307.306885
2.013975	2293.580078
2.014091	2173.072998
2.014208	2215.425293
2.014324	2159.020020
2.014440	2198.692383
2.014556	2286.373779
2.014672	2253.991211
2.014788	2125.606934
2.014905	2245.255859
2.015021	2228.892578
2.015137	2292.505615
2.015254	2169.529053
2.015370	2286.427734
2.015486	2294.047852
2.015603	2160.475098
2.015719	2168.113037
2.015835	2090.529297
2.015952	2300.538330
2.016068	2097.833496
2.016185	2134.756104
2.016301	2203.603027
2.016418	2144.702881
2.016534	2162.976318
2.016651	2215.824219
2.016767	2130.354736
2.016884	2212.441406
2.017000	2214.739014
2.017117	2179.819336
2.017234	2224.647461
2.017350	2195.052246
2.017467	2226.577881
2.017583	2167.769775
2.017700	2122.261230
2.017817	2196.274658
2.017934	2172.018311
2.018050	2092.018311
2.018167	2171.309082
2.018284	2176.262451
2.018401	2159.985840
2.018517	2210.042236
2.018634	2108.879395
2.018751	2145.666504
2.018868	2094.931396
2.018985	2150.268311
2.019102	2126.058594
2.019219	2184.022705
2.019336	2173.065430
2.019453	2268.097900
2.019570	2034.596558
2.019687	2153.459229
2.019804	2182.239258
2.019921	2144.812012
2.020038	2168.289063
2.020155	2109.699707
2.020272	2162.287354
2.020390	2217.503906
2.020507	2076.916748
2.020624	2126.838379
2.020741	2142.360352
2.020858	2123.499023
2.020976	2165.456543
2.021093	2180.964111
2.021210	2074.881348
2.021327	2122.111572
2.021445	2090.057129
2.021562	2198.031982
2.021679	2128.995605
2.021797	2046.776611
2.021914	2128.299805
2.022031	2114.751221
2.022149	2164.560059
2.022266	2267.137939
2.022384	2053.020996
2.022501	2121.284180
2.022619	2086.643799
2.022736	2154.878906
2.022854	2194.083496
2.022971	2101.440918
2.023089	1985.101929
2.023206	2121.840576
2.023324	2100.410400
2.023442	2060.542480
2.023559	2252.526611
2.023677	2065.137207
2.023795	2154.344238
2.023912	2082.894531
2.024030	2129.944580
2.024148	2134.861084
2.024266	2073.977295
2.024384	2168.372803
2.024501	2094.347900
2.024619	2104.528076
2.024737	2114.704834
2.024855	2045.984131
2.024973	2087.719482
2.025091	2100.522705
2.025208	2042.352051
2.025326	2157.653564
2.025445	2067.960693
2.025563	2015.078003
2.025681	2140.834229
2.025798	2103.715088
2.025917	2105.997070
2.026035	1948.122437
2.026153	2160.434570
2.026271	2078.717285
2.026389	2206.963867
2.026507	2049.175781
2.026625	2090.814209
2.026743	2061.619873
2.026861	2108.487549
2.026980	2081.921875
2.027098	2076.338135
2.027216	2018.331787
2.027334	1986.552246
2.027453	2190.614746
2.027571	2035.680786
2.027689	2027.489136
2.027808	2137.158203
2.027926	2053.012207
2.028044	2016.021240
2.028163	2068.046875
2.028281	2125.290283
2.028400	2093.539551
2.028518	2051.333008
2.028637	2058.845459
2.028755	2144.824463
2.028874	2079.093262
2.028992	2042.145996
2.029111	2081.027100
2.029229	2096.370117
2.029348	1975.805908
2.029467	1978.095581
2.029585	2116.241943
2.029704	2079.324463
2.029823	2047.642700
2.029941	2015.971191
2.030060	2020.863037
2.030179	1968.322144
2.030298	2009.761108
2.030416	2006.822510
2.030535	2040.413818
2.030654	2003.556641
2.030773	2151.905762
2.030892	2055.059570
2.031011	1984.320068
2.031129	2002.244751
2.031248	1991.490234
2.031367	2014.620361
2.031486	1852.730225
2.031605	2045.225220
2.031724	2104.804199
2.031843	1950.792358
2.031962	1986.930298
2.032081	1965.775513
2.032200	2074.790039
2.032319	2051.024902
2.032439	2042.881714
2.032557	1974.895874
2.032677	2018.798706
2.032796	2021.069092
2.032915	2049.345703
2.033034	1968.401733
2.033154	2038.275024
2.033273	2019.745239
2.033392	1962.236572
2.033511	1930.732422
2.033631	1966.790039
2.033750	1940.490723
2.033869	1953.159302
2.033989	2069.697998
2.034108	1986.272949
2.034227	1913.259277
2.034347	1941.497192
2.034466	1925.608154
2.034586	1966.808350
2.034705	1963.891724
2.034825	1945.412842
2.034944	1996.963135
2.035064	1931.810059
2.035183	1965.197388
2.035303	1946.730103
2.035423	1938.635742
2.035542	1979.779419
2.035662	1979.454956
2.035781	1891.054077
2.035901	1914.054565
2.036021	1965.533569
2.036140	1965.211426
2.036260	1915.702393
2.036380	1928.330200
2.036500	1990.124634
2.036619	1891.472778
2.036739	1953.252930
2.036859	1939.999390
2.036979	1931.922607
2.037099	1897.990234
2.037219	1954.557739
2.037339	2021.446533
2.037459	1915.148682
2.037578	1969.101318
2.037699	1896.434937
2.037818	1810.875854
2.037939	1926.807251
2.038059	1856.765747
2.038178	1851.297241
2.038299	1900.043701
2.038419	1858.433594
2.038539	1982.004150
2.038659	1917.171265
2.038779	1947.815552
2.038899	1857.214844
2.039020	1929.123413
2.039140	1866.920166
2.039260	1840.831909
2.039380	1902.396606
2.039500	1866.001587
2.039621	1961.041870
2.039741	1929.802124
2.039861	1849.627075
2.039982	1911.139404
2.040102	1964.905884
2.040222	1851.291748
2.040343	1920.496582
2.040463	1886.719849
2.040584	1883.836792
2.040704	1847.504028
2.040825	1885.791382
2.040945	1882.909668
2.041066	1792.585693
2.041186	1856.577515
2.041307	1928.261230
2.041427	1843.115234
2.041548	1873.654907
2.041668	1870.777710
2.041789	1934.703857
2.041910	1829.061157
2.042031	1844.171875
2.042151	1879.822144
2.042272	1817.890259
2.042393	1897.175659
2.042513	1878.896729
2.042634	1806.729736
2.042755	1911.637451
2.042876	1831.791992
2.042997	1880.228516
2.043118	1800.414429
2.043238	1866.789917
2.043359	1835.717285
2.043480	1832.852417
2.043601	1901.752808
2.043722	1837.375854
2.043843	1921.625732
2.043964	1949.489502
2.044085	1844.155029
2.044206	1861.778564
2.044327	1835.868042
2.044448	1838.126587
2.044569	1832.705444
2.044690	1888.707520
2.044812	1896.073730
2.044933	1875.295288
2.045054	1869.871338
2.045175	1905.369873
2.045296	1841.128906
2.045418	1822.929565
2.045539	1919.769043
2.045660	1789.104614
2.045781	1839.919678
2.045903	1803.847046
2.046024	1882.743530
2.046145	1775.158569
2.046267	1838.711060
2.046388	1731.168457
2.046510	1835.554077
2.046631	1827.594971
2.046753	1817.086426
2.046874	1860.166260
2.046995	1847.104370
2.047117	1805.987671
2.047239	1769.985107
2.047360	1764.594360
2.047482	1871.386475
2.047603	1845.587402
2.047725	1832.540527
2.047847	1824.594482
2.047968	1778.432495
2.048090	1852.017090
2.048212	1800.771484
2.048333	1810.662109
2.048455	1838.373047
2.048577	1751.513550
2.048699	1789.406494
2.048820	1689.858643
2.048942	1735.382813
2.049064	1735.097534
2.049186	1851.823120
2.049308	1777.763184
2.049430	1698.641724
2.049551	1807.688232
2.049674	1741.297974
2.049795	1771.511230
2.049917	1771.219971
2.050040	1768.388062
2.050161	1783.339478
2.050283	1765.266602
2.050405	1803.069458
2.050528	1757.068848
2.050650	1766.934814
2.050772	1779.335571
2.050894	1766.353760
2.051016	1760.988403
2.051138	1788.606079
2.051260	1732.506470
2.051383	1853.958984
2.051505	1792.795410
2.051627	1795.035889
2.051749	1711.087524
2.051872	1726.013306
2.051994	1710.524780
2.052116	1786.254150
2.052239	1745.427979
2.052361	1699.549316
2.052484	1732.191528
2.052606	1772.419067
2.052728	1640.483765
2.052851	1650.338623
2.052973	1693.090332
2.053096	1707.994019
2.053218	1745.662231
2.053341	1715.020630
2.053463	1664.156250
2.053586	1734.685913
2.053709	1706.589355
2.053831	1688.613525
2.053954	1658.006348
2.054076	1713.328247
2.054199	1768.631836
2.054322	1748.131226
2.054445	1735.214600
2.054567	1722.302124
2.054690	1666.469727
2.054813	1726.784424
2.054936	1731.548462
2.055058	1736.310913
2.055181	1698.175659
2.055304	1720.602051
2.055427	1720.318848
2.055550	1634.286133
2.055673	1674.363159
2.055796	1724.511841
2.055919	1693.978394
2.056042	1643.291748
2.056165	1736.260254
2.056288	1612.516113
2.056411	1720.573730
2.056534	1677.472046
2.056657	1717.488892
2.056780	1737.349243
2.056903	1633.846436
2.057026	1643.645630
2.057149	1721.391235
2.057273	1653.169312
2.057396	1680.571167
2.057519	1597.285889
2.057642	1622.172729
2.057765	1704.886841
2.057889	1707.120239
2.058012	1563.555054
2.058136	1641.211060
2.058259	1643.453735
2.058382	1602.982788
2.058506	1635.376099
2.058629	1677.805298
2.058753	1672.506348
2.058876	1647.122314
2.058999	1616.725708
2.059123	1558.728638
2.059246	1646.308472
2.059370	1590.834717
2.059494	1605.625366
2.059617	1653.020020
2.059741	1642.715820
2.059864	1654.982910
2.059988	1649.695923
2.060112	1679.504761
2.060235	1644.139648
2.060359	1568.691772
2.060483	1598.499146
2.060606	1558.154541
2.060730	1643.056152
2.060854	1622.751343
2.060978	1529.842163
2.061101	1577.155029
2.061225	1619.446167
2.061349	1661.723389
2.061473	1593.890503
2.061597	1583.620728
2.061721	1585.861084
2.061845	1618.111938
2.061969	1612.844116
2.062093	1587.577026
2.062217	1639.809204
2.062341	1652.035278
2.062465	1564.302002
2.062589	1641.496704
2.062713	1618.743530
2.062837	1645.950806
2.062961	1593.237427
2.063085	1558.019165
2.063210	1640.143921
2.063334	1599.937378
2.063458	1574.717651
2.063582	1522.059204
2.063706	1589.166992
2.063831	1628.814575
2.063955	1603.606445
2.064079	1513.574829
2.064204	1565.680786
2.064328	1575.393311
2.064452	1512.826050
2.064577	1515.068359
2.064701	1597.037231
2.064825	1529.515015
2.064950	1574.094482
2.065074	1715.778809
2.065199	1588.514160
2.065324	1540.953003
2.065448	1548.165894
2.065573	1530.490234
2.065697	1525.261353
2.065822	1569.789795
2.065946	1552.119141
2.066071	1526.993408
2.066195	1621.230347
2.066320	1486.711304
2.066445	1538.666260
2.066570	1518.529785
2.066694	1500.884888
2.066819	1557.780640
2.066944	1567.459839
2.067069	1554.782837
2.067194	1524.726929
2.067318	1482.266724
2.067443	1546.565674
2.067568	1571.130859
2.067693	1590.724487
2.067818	1530.912720
2.067943	1490.967041
2.068068	1515.524902
2.068193	1557.434570
2.068318	1500.147095
2.068443	1512.295288
2.068568	1539.312012
2.068693	1561.363037
2.068818	1600.752319
2.068943	1605.443115
2.069068	1493.707275
2.069193	1503.367554
2.069319	1421.401123
2.069444	1505.346924
2.069569	1510.049316
2.069694	1554.351440
2.069819	1556.569458
2.069945	1598.374878
2.070070	1561.003052
2.070195	1545.904541
2.070321	1451.673706
2.070446	1486.050781
2.070571	1411.638672
2.070697	1460.841797
2.070822	1413.643677
2.070948	1539.431030
2.071073	1519.411987
2.071199	1504.339966
2.071324	1425.058716
2.071450	1489.026733
2.071575	1446.808472
2.071701	1515.688721
2.071826	1461.139282
2.071952	1515.187988
2.072078	1475.460449
2.072203	1445.613525
2.072329	1474.972778
2.072454	1519.118896
2.072580	1518.867920
2.072706	1466.845825
2.072832	1478.927856
2.072958	1446.645264
2.073083	1419.301392
2.073209	1421.530518
2.073335	1455.781006
2.073461	1455.540405
2.073587	1482.386597
2.073713	1440.287109
2.073838	1390.816528
2.073964	1538.259521
2.074090	1407.582397
2.074217	1363.062500
2.074342	1416.957031
2.074469	1475.752930
2.074594	1468.131348
2.074721	1453.135986
2.074847	1438.145508
2.074973	1442.823608
2.075099	1476.990845
2.075225	1442.346558
2.075351	1400.343384
2.075477	1301.858276
2.075603	1488.293701
2.075730	1456.125732
2.075856	1438.699097
2.075982	1485.100708
2.076109	1467.674927
2.076235	1469.886108
2.076361	1381.317139
2.076488	1449.775146
2.076614	1476.514893
2.076741	1473.818359
2.076867	1392.662842
2.076993	1473.330811
2.077120	1468.184937
2.077246	1379.718506
2.077373	1406.442993
2.077499	1425.808960
2.077626	1425.573120
2.077753	1405.744995
2.077879	1503.457397
2.078006	1397.935059
2.078132	1466.242676
2.078259	1390.130249
2.078386	1453.522461
2.078512	1399.456665
2.078639	1431.025635
2.078766	1384.318726
2.078892	1440.333496
2.079019	1327.625854
2.079146	1395.854370
2.079273	1417.620850
2.079400	1402.723633
2.079527	1392.717896
2.079654	1360.728882
2.079780	1406.912231
2.079907	1509.249634
2.080034	1413.771729
2.080161	1352.504028
2.080288	1408.421753
2.080415	1391.104736
2.080542	1342.071899
2.080669	1417.481201
2.080796	1341.627441
2.080923	1382.866943
2.081050	1455.793335
2.081177	1375.094604
2.081305	1408.994873
2.081432	1408.761475
2.081559	1381.722290
2.081686	1420.477417
2.081814	1422.678223
2.081941	1476.027710
2.082068	1366.195435
2.082195	1283.183105
2.082323	1399.825562
2.082450	1377.687012
2.082577	1367.724121
2.082705	1328.565186
2.082832	1350.240967
2.082960	1488.667603
2.083087	1403.298950
2.083215	1420.088013
2.083342	1325.033813
2.083470	1312.660034
2.083597	1361.051514
2.083724	1358.395874
2.083852	1440.778687
2.083980	1365.233521
2.084107	1275.140259
2.084235	1345.353516
2.084363	1398.547363
2.084490	1371.611572
2.084618	1315.557983
2.084746	1334.754639
2.084874	1395.193970
2.085001	1300.347900
2.085129	1397.157104
2.085257	1348.421143
2.085385	1362.746582
2.085513	1306.759155
2.085641	1330.782593
2.085768	1306.325928
2.085896	1354.573486
2.086024	1240.477051
2.086152	1329.900269
2.086280	1288.505737
2.086408	1319.772949
2.086536	1321.975342
2.086664	1370.172119
2.086792	1377.206055
2.086920	1333.417725
2.087049	1352.553345
2.087177	1320.879517
2.087305	1323.079346
2.087433	1320.441528
2.087561	1269.444702
2.087689	1259.563843
2.087818	1370.545532
2.087946	1343.733521
2.088074	1244.438843
2.088202	1381.943604
2.088331	1318.909058
2.088459	1371.824341
2.088587	1388.500244
2.088716	1301.352173
2.088844	1325.276001
2.088973	1240.580811
2.089101	1327.249512
2.089230	1249.820313
2.089358	1346.108154
2.089487	1355.532715
2.089615	1280.548828
2.089744	1289.980957
2.089872	1272.891479
2.090001	1328.119019
2.090129	1313.438721
2.090258	1214.427979
2.090387	1211.817261
2.090515	1312.784790
2.090644	1327.017212
2.090773	1309.941040
2.090901	1266.387207
2.091030	1258.955444
2.091159	1309.288818
2.091288	1260.943848
2.091417	1270.358521
2.091546	1236.469482
2.091674	1272.341919
2.091803	1252.892334
2.091932	1255.088745
2.092061	1242.860474
2.092190	1230.636108
2.092319	1324.156128
2.092448	1290.297119
2.092577	1261.254272
2.092706	1313.888550
2.092835	1277.646484
2.092964	1311.051025
2.093093	1318.035645
2.093223	1260.207275
2.093352	1223.998047
2.093481	1271.786621
2.093610	1290.769043
2.093739	1189.805054
2.093868	1273.551392
2.093998	1237.369751
2.094127	1253.947510
2.094256	1210.589478
2.094386	1246.340454
2.094515	1231.754883
2.094645	1202.798096
2.094774	1267.279907
2.094903	1216.769775
2.095033	1218.962402
2.095162	1182.843506
2.095292	1249.679688
2.095421	1273.408203
2.095551	1227.725342
2.095680	1282.556274
2.095810	1181.861084
2.095939	1279.738037
2.096069	1198.209717
2.096198	1233.879150
2.096328	1226.501465
2.096458	1262.154297
2.096588	1247.604248
2.096717	1221.110718
2.096847	1249.578735
2.096977	1187.260742
2.097106	1227.667114
2.097236	1217.910767
2.097366	1191.444092
2.097496	1227.054932
2.097626	1293.683228
2.097756	1207.555176
2.097886	1286.094849
2.098016	1190.453857
2.098145	1271.355469
2.098275	1211.521973
2.098405	1201.782471
2.098536	1268.337158
2.098665	1206.150146
2.098796	1253.615601
2.098926	1243.875488
2.099056	1174.575806
2.099186	1176.762573
2.099316	1188.475464
2.099446	1135.888794
2.099576	1128.557007
2.099707	1159.316162
