#Wave		#Intensity
1.699584	329.974670
1.699649	387.361572
1.699714	411.201630
1.699779	358.544006
1.699844	353.702240
1.699908	296.293854
1.699973	324.911224
1.700038	415.623322
1.700103	453.763062
1.700168	300.864532
1.700233	343.785706
1.700298	353.274200
1.700363	381.852020
1.700428	391.330658
1.700493	310.147491
1.700558	381.653992
1.700623	362.508636
1.700688	395.829163
1.700753	386.224335
1.700818	405.227112
1.700883	352.724976
1.700948	285.943817
1.701013	376.427612
1.701078	285.845001
1.701143	409.640381
1.701208	380.994995
1.701273	395.214050
1.701338	409.428162
1.701403	314.158020
1.701468	375.972717
1.701534	423.491058
1.701599	399.630402
1.701664	347.237885
1.701729	394.736542
1.701794	408.933533
1.701859	370.829163
1.701925	370.765167
1.701990	422.979553
1.702055	413.403015
1.702120	285.056335
1.702186	318.257965
1.702251	394.191864
1.702316	451.105591
1.702381	375.065216
1.702447	346.519440
1.702512	427.142059
1.702577	493.501251
1.702643	450.716675
1.702708	384.228973
1.702773	341.477966
1.702839	384.096466
1.702904	374.548035
1.702969	502.471466
1.703035	379.158356
1.703100	450.172943
1.703166	435.881805
1.703231	388.436401
1.703297	402.578064
1.703362	416.714874
1.703427	388.235596
1.703493	435.506348
1.703558	340.772339
1.703624	435.356293
1.703689	383.236786
1.703755	373.709747
1.703820	416.212585
1.703886	411.412018
1.703952	420.797272
1.704017	411.270325
1.704083	387.567352
1.704148	406.403076
1.704214	481.929962
1.704280	434.607086
1.704345	406.193207
1.704411	406.123291
1.704476	472.155090
1.704542	344.613892
1.704608	382.313995
1.704674	457.753998
1.704739	396.337311
1.704805	415.139069
1.704871	400.917603
1.704936	490.450104
1.705002	344.199005
1.705068	452.567413
1.705134	306.373138
1.705199	315.745697
1.705265	475.893005
1.705331	442.834137
1.705397	390.945892
1.705463	437.972473
1.705528	386.102875
1.705594	456.652954
1.705660	442.453583
1.705726	475.320526
1.705792	432.890808
1.705858	442.225464
1.705924	428.038300
1.705989	479.696747
1.706056	423.189087
1.706121	418.415100
1.706187	427.744171
1.706253	446.469391
1.706319	394.705109
1.706385	465.108246
1.706451	422.753052
1.706517	474.341400
1.706583	422.607849
1.706649	375.586914
1.706715	445.932861
1.706781	445.856293
1.706847	455.164581
1.706913	412.861908
1.706980	440.935883
1.707046	459.620209
1.707112	440.784515
1.707178	492.281158
1.707244	398.444916
1.707310	459.304718
1.707376	426.424042
1.707443	445.091583
1.707509	496.543274
1.707575	496.458099
1.707641	383.986603
1.707707	444.786224
1.707773	458.753387
1.707840	463.355042
1.707906	477.314240
1.707972	444.481140
1.708038	491.184357
1.708105	374.171539
1.708171	528.426697
1.708237	420.798645
1.708303	500.197052
1.708370	495.437378
1.708436	429.928528
1.708503	434.527191
1.708569	467.153442
1.708635	518.451477
1.708702	382.934540
1.708768	485.589844
1.708834	415.481628
1.708901	504.093597
1.708967	448.006409
1.709034	401.270325
1.709100	480.508881
1.709167	433.783203
1.709233	387.073547
1.709299	424.309143
1.709366	480.179749
1.709432	484.758667
1.709499	549.920471
1.709566	424.018585
1.709632	503.144684
1.709699	503.058563
1.709765	600.772644
1.709832	419.071960
1.709898	465.555786
1.709965	460.821350
1.710032	442.126617
1.710098	497.888977
1.710165	488.499023
1.710231	432.596527
1.710298	386.014740
1.710365	497.548309
1.710431	492.813995
1.710498	483.432892
1.710565	520.531006
1.710631	478.620728
1.710698	520.352966
1.710765	436.650116
1.710832	529.463806
1.710898	417.926270
1.710965	506.068634
1.711032	440.993561
1.711099	389.864502
1.711165	440.842804
1.711232	450.046753
1.711299	459.247559
1.711366	468.445190
1.711433	500.826080
1.711500	528.559448
1.711566	528.469116
1.711633	417.141144
1.711700	426.338104
1.711767	472.598450
1.711834	514.210449
1.711901	477.068726
1.711968	439.939667
1.712035	560.248474
1.712102	462.936218
1.712169	495.257141
1.712236	499.800354
1.712303	448.818115
1.712370	527.386902
1.712437	453.290253
1.712504	550.329895
1.712571	448.511658
1.712638	462.304230
1.712705	522.314575
1.712772	503.739594
1.712839	568.343079
1.712906	498.947784
1.712973	494.243530
1.713040	540.342285
1.713107	512.544983
1.713175	530.924438
1.713242	480.058441
1.713309	498.437195
1.713376	535.267151
1.713443	549.016602
1.713511	465.892578
1.713578	507.321228
1.713645	562.569397
1.713712	567.083923
1.713779	451.745911
1.713847	525.410706
1.713914	493.064575
1.713981	548.268066
1.714048	502.109497
1.714116	515.841064
1.714183	497.333405
1.714250	488.040314
1.714318	529.387451
1.714385	520.092041
1.714453	510.799835
1.714520	552.121948
1.714587	473.823914
1.714655	597.928284
1.714722	446.070496
1.714789	524.158447
1.714857	519.472107
1.714924	510.190979
1.714992	523.890686
1.715059	560.559448
1.715127	482.366547
1.715194	574.148071
1.715262	532.718689
1.715329	518.853149
1.715397	514.173950
1.715464	559.987000
1.715532	582.838013
1.715599	532.265381
1.715667	509.236206
1.715734	513.736450
1.715802	513.648987
1.715870	508.976227
1.715937	573.073853
1.716005	559.224915
1.716073	549.963684
1.716140	545.287903
1.716208	545.195129
1.716275	540.521667
1.716343	526.690002
1.716411	586.129150
1.716478	462.413849
1.716546	558.464294
1.716614	608.714111
1.716682	512.514160
1.716749	535.303223
1.716817	503.190948
1.716885	576.284363
1.716953	535.030212
1.717021	589.804810
1.717088	511.991547
1.717156	571.322021
1.717224	511.817505
1.717292	507.161499
1.717360	507.075287
1.717427	561.798767
1.717495	474.936127
1.717563	593.569275
1.717631	538.686707
1.717699	579.674500
1.717767	570.448792
1.717835	520.160950
1.717903	542.882751
1.717971	583.841919
1.718039	560.940308
1.718107	528.927063
1.718175	615.457092
1.718243	537.863708
1.718311	587.903748
1.718379	647.039978
1.718447	574.036560
1.718515	619.489807
1.718583	592.058838
1.718651	532.762512
1.718719	587.305115
1.718787	546.237610
1.718855	559.798523
1.718923	532.400879
1.718992	586.906494
1.719060	623.197998
1.719128	573.062988
1.719196	595.702454
1.719264	618.334290
1.719332	654.595825
1.719401	563.584106
1.719469	608.931091
1.719537	572.479919
1.719605	599.639099
1.719674	585.911560
1.719742	608.518066
1.719810	622.036133
1.719878	612.851379
1.719947	599.130859
1.720015	694.329346
1.720083	598.927673
1.720152	612.435852
1.720220	512.544556
1.720288	535.132813
1.720357	616.658691
1.720425	607.487183
1.720493	602.851501
1.720562	580.089600
1.720630	539.210632
1.720699	670.501282
1.720767	575.265137
1.720835	611.398682
1.720904	561.485840
1.720972	579.500122
1.721041	597.508240
1.721109	597.407043
1.721178	651.606384
1.721246	633.398926
1.721315	574.485962
1.721383	628.661621
1.721452	642.121094
1.721520	628.448730
1.721589	578.617371
1.721658	560.440674
1.721726	623.610657
1.721795	614.468750
1.721864	636.951721
1.721932	618.777405
1.722001	618.672668
1.722069	605.022644
1.722138	618.463257
1.722207	604.817871
1.722275	640.817932
1.722344	658.757690
1.722413	613.533447
1.722481	559.303528
1.722550	617.835632
1.722619	617.731079
1.722688	599.593689
1.722756	622.029602
1.722825	603.897583
1.722894	594.783569
1.722963	662.260559
1.723032	603.591187
1.723101	698.065796
1.723169	603.387085
1.723238	675.319092
1.723307	648.196716
1.723376	603.081116
1.723445	575.980042
1.723514	733.350647
1.723583	634.263550
1.723651	665.639282
1.723720	656.533203
1.723789	638.438049
1.723858	669.797119
1.723927	615.749634
1.723996	647.101929
1.724065	620.034607
1.724134	557.038391
1.724203	655.756958
1.724272	723.007080
1.724341	646.555481
1.724410	588.086548
1.724479	673.267822
1.724549	727.006409
1.724618	668.553467
1.724687	717.788513
1.724756	659.356812
1.724825	623.368164
1.724894	605.327271
1.724963	726.270081
1.725032	640.982056
1.725101	596.057495
1.725171	703.497925
1.725240	622.737000
1.725309	653.987427
1.725378	774.799500
1.725447	716.456665
1.725517	658.133423
1.725586	658.022400
1.725655	613.155457
1.725724	617.526855
1.725794	617.422668
1.725863	657.578369
1.725932	675.357666
1.726002	715.490051
1.726071	630.419250
1.726140	768.892334
1.726210	639.145691
1.726279	670.319458
1.726348	705.950745
1.726418	656.691528
1.726487	611.915405
1.726557	652.004272
1.726626	674.219482
1.726696	656.248718
1.726765	651.674561
1.726834	656.027466
1.726904	704.999084
1.726973	629.038696
1.727043	686.919373
1.727112	691.263367
1.727182	695.605835
1.727251	691.030334
1.727321	677.541382
1.727390	713.081238
1.727460	641.664978
1.727530	623.735840
1.727599	699.357361
1.727669	725.962036
1.727738	659.044678
1.727808	712.360718
1.727878	663.274170
1.727947	707.669983
1.728017	729.800842
1.728087	729.677917
1.728156	693.966980
1.728226	684.954590
1.728296	680.392273
1.728365	666.938904
1.728435	724.618225
1.728505	640.045776
1.728575	684.378113
1.728644	724.252319
1.728714	715.245361
1.728784	755.100891
1.728854	723.886658
1.728923	679.362061
1.728993	719.203491
1.729063	719.082397
1.729133	736.713562
1.729203	754.338745
1.729273	740.902161
1.729343	691.983765
1.729412	660.822021
1.729482	762.699768
1.729552	691.634583
1.729622	766.875977
1.729692	691.401917
1.729762	766.618042
1.729832	779.780823
1.729902	753.070679
1.729972	761.802246
1.730042	704.105713
1.730112	726.125305
1.730182	739.283752
1.730252	743.585571
1.730322	690.356201
1.730392	769.883240
1.730462	716.667358
1.730532	747.508789
1.730602	787.184570
1.730672	756.100769
1.730743	804.603577
1.730813	782.367554
1.730883	729.203125
1.730953	808.616638
1.731023	795.226990
1.731093	773.007446
1.731164	764.044678
1.731234	821.320435
1.731304	741.713196
1.731374	741.588562
1.731444	750.290955
1.731515	803.117737
1.731585	758.862915
1.731655	816.081726
1.731725	763.018494
1.731796	806.988098
1.731866	740.717102
1.731936	846.391663
1.732007	766.913635
1.732077	762.378113
1.732147	691.752991
1.732218	757.716797
1.732288	792.826294
1.732358	810.308594
1.732429	761.738342
1.732499	774.817627
1.732570	853.916992
1.732640	800.962891
1.732710	756.826904
1.732781	708.306335
1.732851	818.154480
1.732922	818.017151
1.732992	892.632385
1.733063	791.363892
1.733133	738.482361
1.733204	857.023254
1.733274	760.205872
1.733345	843.555176
1.733416	799.485901
1.733486	830.096069
1.733557	746.522034
1.733627	777.130859
1.733698	807.729309
1.733769	776.870178
1.733839	724.079590
1.733910	750.283936
1.733980	820.348389
1.734051	776.349304
1.734122	828.844177
1.734193	811.166443
1.734263	868.021851
1.734334	775.828857
1.734405	819.523560
1.734475	740.514832
1.734546	810.486877
1.734617	823.491882
1.734688	770.799377
1.734758	823.215881
1.734829	823.077942
1.734900	801.053345
1.734971	735.270020
1.735042	809.536682
1.735113	822.526489
1.735183	844.260742
1.735254	830.998230
1.735325	848.350830
1.735396	870.069763
1.735467	891.781433
1.735538	874.149109
1.735609	795.342468
1.735680	882.594910
1.735751	799.444641
1.735822	877.931519
1.735893	847.214905
1.735964	855.805786
1.736035	812.006226
1.736106	820.600098
1.736177	803.006042
1.736248	811.598511
1.736319	872.540466
1.736390	806.964844
1.736461	793.746094
1.736532	859.020935
1.736603	885.035828
1.736674	858.733398
1.736745	889.097961
1.736817	910.737183
1.736888	806.020020
1.736959	775.392212
1.737030	831.882813
1.737101	831.743591
1.737172	957.869019
1.737244	857.584717
1.737315	944.491150
1.737386	835.539001
1.737457	905.015869
1.737528	887.463257
1.737600	861.217346
1.737671	874.119873
1.737742	913.106873
1.737814	873.827576
1.737885	860.641418
1.737956	882.227295
1.738028	829.937134
1.738099	825.453918
1.738170	864.409790
1.738242	807.805786
1.738313	872.805481
1.738384	955.149780
1.738456	889.877197
1.738527	876.708069
1.738599	959.010376
1.738670	924.140625
1.738742	828.550964
1.738813	863.110474
1.738885	823.937622
1.738956	836.807312
1.739028	919.033752
1.739099	875.536804
1.739171	914.393066
1.739242	849.246948
1.739314	879.430237
1.739385	874.951904
1.739457	866.144348
1.739528	965.589661
1.739600	909.147766
1.739672	973.924255
1.739743	908.844177
1.739815	856.767151
1.739887	843.644897
1.739958	955.971252
1.740030	1007.710938
1.740101	1024.839600
1.740173	912.257568
1.740245	847.263672
1.740317	933.563293
1.740388	937.728821
1.740460	812.274597
1.740532	997.894226
1.740604	950.216858
1.740675	932.784485
1.740747	993.076965
1.740819	919.522156
1.740891	992.745544
1.740963	932.161987
1.741034	1009.673706
1.741106	992.248718
1.741178	897.188293
1.741250	866.849792
1.741322	922.760742
1.741394	995.898071
1.741466	956.937195
1.741538	1004.185486
1.741610	969.545288
1.741681	1038.317505
1.741753	1068.297852
1.741825	1033.664307
1.741897	891.386780
1.741969	947.209595
1.742041	964.270813
1.742113	955.501892
1.742185	976.859314
1.742257	929.367554
1.742329	933.514526
1.742401	997.876831
1.742474	1040.715210
1.742546	980.345154
1.742618	941.490356
1.742690	980.018372
1.742762	1044.319214
1.742834	902.347656
1.742906	1005.305603
1.742978	979.365295
1.743051	1030.739014
1.743123	1000.509094
1.743195	974.582520
1.743267	978.712708
1.743340	1017.176636
1.743412	995.551331
1.743484	1098.356445
1.743556	956.612061
1.743629	935.007568
1.743701	934.851868
1.743773	960.421692
1.743845	964.548645
1.743918	1041.539063
1.743990	1007.081970
1.744062	976.921082
1.744135	993.894531
1.744207	1122.228516
1.744280	1044.954834
1.744352	1057.626465
1.744424	1087.418701
1.744497	1052.993896
1.744569	997.181885
1.744642	971.341675
1.744714	1035.354858
1.744786	1129.290039
1.744859	1060.671631
1.744931	983.523743
1.745004	1026.114868
1.745076	1025.944092
1.745149	1000.129028
1.745221	1042.696045
1.745294	1033.977295
1.745367	1033.805176
1.745439	1067.802979
1.745512	1059.084229
1.745584	1080.257080
1.745657	1024.579346
1.745729	1075.629272
1.745802	973.026550
1.745875	1122.208008
1.745947	1083.625122
1.746020	1032.258545
1.746093	1078.999878
1.746166	1104.405151
1.746238	1014.690002
1.746311	1078.461670
1.746384	1056.972412
1.746456	1056.796753
1.746529	1052.360474
1.746602	1094.784058
1.746675	1005.159912
1.746747	1017.768127
1.746820	1030.372192
1.746893	1140.883667
1.746966	1115.156006
1.747039	1004.324768
1.747112	1033.942139
1.747184	995.482544
1.747257	1173.963745
1.747330	1101.471313
1.747403	1007.742554
1.747476	1143.619019
1.747549	1164.682373
1.747622	1075.239624
1.747695	1172.793823
1.747768	1074.882446
1.747841	1070.456055
1.747914	998.076904
1.747987	1053.114624
1.748060	1116.625610
1.748133	1052.764893
1.748206	1124.743286
1.748279	1069.389648
1.748352	1115.883911
1.748425	1132.667480
1.748498	1123.996338
1.748571	1145.013672
1.748644	1153.303711
1.748717	1059.845825
1.748791	1127.488647
1.748864	1080.683716
1.748937	1110.165283
1.749010	1101.507813
1.749083	1219.929199
1.749156	1207.021240
1.749229	1147.538452
1.749303	1185.451782
1.749376	1159.856689
1.749449	1142.734741
1.749522	1019.827332
1.749596	1163.510254
1.749669	1142.165894
1.749742	1137.746826
1.749816	1065.667847
1.749889	1141.597412
1.749962	1145.635498
1.750035	1145.445435
1.750109	1166.385620
1.750182	1225.346680
1.750256	1060.382813
1.750329	1127.789795
1.750402	1119.156250
1.750476	1173.863525
1.750549	1207.443481
1.750623	1211.464355
1.750696	1177.500000
1.750769	1126.667969
1.750843	1130.700195
1.750916	1122.075928
1.750990	1176.719116
1.751063	1222.910278
1.751137	1151.031494
1.751211	1163.487305
1.751284	1302.383911
1.751358	1120.960205
1.751431	1158.695313
1.751505	1158.503174
1.751578	1204.643677
1.751652	1217.078003
1.751725	1212.665649
1.751799	1174.575073
1.751873	1195.426636
1.751946	1174.185791
1.752020	1123.496948
1.752094	1194.832520
1.752167	1144.156982
1.752241	1261.728760
1.752315	1269.929810
1.752389	1160.405762
1.752462	1269.509033
1.752536	1277.704712
1.752610	1214.458740
1.752684	1273.079834
1.752757	1281.270630
1.752831	1234.856323
1.752905	1154.861328
1.752979	1276.435303
1.753053	1213.252319
1.753127	1334.776245
1.753200	1200.260376
1.753274	1141.317261
1.753348	1145.323608
1.753422	1291.946045
1.753496	1300.119995
1.753570	1232.812866
1.753644	1194.875854
1.753718	1265.939453
1.753792	1223.818359
1.753866	1290.663208
1.753940	1265.310913
1.754014	1269.290527
1.754088	1273.268799
1.754162	1222.805786
1.754236	1088.619385
1.754310	1176.351685
1.754384	1192.899414
1.754458	1255.475830
1.754532	1364.057983
1.754606	1267.610962
1.754680	1271.583984
1.754754	1329.923706
1.754828	1292.070557
1.754902	1312.760620
1.754977	1354.344116
1.755051	1278.891235
1.755125	1341.359985
1.755199	1278.468140
1.755273	1340.916260
1.755347	1278.045166
1.755422	1365.528198
1.755496	1461.332886
1.755570	1348.378418
1.755645	1218.765869
1.755719	1381.317749
1.755793	1343.537109
1.755867	1280.738159
1.755942	1318.066162
1.756016	1301.166626
1.756090	1359.327515
1.756165	1321.581543
1.756239	1367.214722
1.756314	1308.641602
1.756388	1375.096680
1.756462	1366.536743
1.756537	1195.521973
1.756611	1378.579712
1.756685	1328.381348
1.756760	1369.796997
1.756834	1290.476807
1.756909	1390.154907
1.756983	1344.149170
1.757058	1343.927124
1.757132	1331.224731
1.757207	1434.989502
1.757281	1372.371948
1.757356	1305.616821
1.757431	1301.243774
1.757505	1355.065186
1.757580	1379.776978
1.757654	1437.722900
1.757729	1358.548340
1.757804	1420.632324
1.757878	1383.018799
1.757953	1411.857910
1.758028	1390.865601
1.758102	1382.333496
1.758177	1361.352905
1.758252	1327.929810
1.758326	1485.376099
1.758401	1468.537231
1.758476	1418.521973
1.758550	1397.552612
1.758625	1380.736328
1.758700	1305.886353
1.758775	1529.500000
1.758850	1396.629761
1.758924	1388.111938
1.758999	1400.311646
1.759074	1358.657959
1.759149	1304.593262
1.759224	1461.731445
1.759298	1382.826416
1.759373	1382.598145
1.759448	1489.979614
1.759523	1460.766724
1.759598	1497.762817
1.759673	1410.643188
1.759748	1455.907471
1.759823	1459.802612
1.759898	1451.292236
1.759973	1355.969604
1.760048	1384.679443
1.760123	1438.175903
1.760198	1417.278564
1.760273	1470.752075
1.760348	1478.770630
1.760423	1420.707275
1.760498	1486.541382
1.760573	1568.868164
1.760648	1411.748535
1.760723	1531.205566
1.760798	1456.674927
1.760874	1427.553589
1.760949	1443.818848
1.761024	1439.456299
1.761099	1488.704956
1.761174	1389.503662
1.761249	1467.601563
1.761325	1549.795532
1.761400	1483.602173
1.761475	1524.561890
1.761550	1528.430298
1.761626	1507.582886
1.761701	1400.255981
1.761776	1511.203613
1.761851	1358.623901
1.761927	1543.636353
1.762002	1703.893555
1.762077	1448.482300
1.762153	1518.187134
1.762228	1493.255005
1.762303	1558.816528
1.762379	1505.099731
1.762454	1550.079468
1.762529	1541.602173
1.762605	1615.332886
1.762680	1504.107910
1.762756	1594.255981
1.762831	1515.937012
1.762907	1589.623169
1.762982	1552.399414
1.763058	1638.373779
1.763133	1527.254761
1.763209	1428.486816
1.763284	1506.230713
1.763360	1624.984009
1.763435	1595.996582
1.763511	1558.814453
1.763586	1529.847412
1.763662	1541.897827
1.763738	1525.243408
1.763813	1557.787720
1.763889	1508.345947
1.763964	1598.255615
1.764040	1606.187256
1.764116	1745.212036
1.764191	1597.466187
1.764267	1654.538696
1.764343	1580.561401
1.764419	1670.370117
1.764494	1551.387329
1.764570	1559.317383
1.764646	1538.600586
1.764722	1628.356934
1.764797	1587.182129
1.764873	1574.650879
1.764949	1533.498413
1.765025	1508.714111
1.765100	1635.193237
1.765176	1728.932251
1.765252	1728.647705
1.765328	1601.698242
1.765404	1625.946411
1.765480	1654.271240
1.765556	1719.342163
1.765632	1612.894165
1.765708	1624.876587
1.765783	1685.838135
1.765859	1681.479614
1.765935	1689.364136
1.766011	1631.967285
1.766087	1705.125244
1.766163	1725.237671
1.766239	1663.785278
1.766315	1667.588867
1.766391	1777.381714
1.766467	1736.330444
1.766544	1670.841309
1.766620	1711.312012
1.766696	1694.735107
1.766772	1722.968872
1.766848	1718.613037
1.766924	1763.120972
1.767000	1665.122192
1.767076	1571.226074
1.767152	1823.299316
1.767229	1741.615601
1.767305	1623.342041
1.767381	1716.635864
1.767457	1736.689575
1.767533	1720.137939
1.767610	1707.657593
1.767686	1748.028809
1.767762	1674.580078
1.767838	1694.624146
1.767915	1767.482788
1.767991	1722.504639
1.768067	1815.643921
1.768144	1693.510254
1.768220	1778.502563
1.768296	1806.629272
1.768373	1761.681396
1.768449	1716.748291
1.768525	1769.218140
1.768602	1695.898315
1.768678	1760.523804
1.768755	1825.127930
1.768831	1889.710815
1.768908	1747.492676
1.768984	1714.774780
1.769060	1795.556641
1.769137	1803.366577
1.769214	1888.159058
1.769290	1831.132446
1.769367	1790.326538
1.769443	1838.630615
1.769520	1704.705688
1.769596	1805.638550
1.769673	1797.246338
1.769749	1857.658936
1.769826	1901.865601
1.769903	1828.727905
1.769979	1864.834229
1.770056	1775.548462
1.770132	1860.177979
1.770209	1839.656616
1.770286	1964.673218
1.770362	1932.015625
1.770439	1935.739624
1.770516	1773.799927
1.770593	1817.947510
1.770669	1829.766724
1.770746	1837.543457
1.770823	1909.923828
1.770900	1897.498657
1.770976	1885.077515
1.771053	1755.619019
1.771130	1860.247314
1.771207	1855.907349
1.771284	1908.043701
1.771361	1871.431274
1.771437	1943.710815
1.771514	1907.104492
1.771591	1951.135498
1.771668	1914.539795
1.771745	1890.046021
1.771822	1869.589478
1.771899	1945.826538
1.771976	2001.898804
1.772053	1864.642090
1.772130	1965.002197
1.772207	1860.004272
1.772284	2028.762695
1.772361	1891.591309
1.772438	1927.497070
1.772515	1951.320923
1.772592	2059.613281
1.772669	1930.570801
1.772746	1966.446411
1.772823	1990.248047
1.772900	2022.082031
1.772977	2001.653442
1.773054	2041.512451
1.773132	1904.563477
1.773209	1984.599243
1.773286	1952.139771
1.773363	1923.707031
1.773440	2092.039795
1.773517	1943.150146
1.773595	2007.057373
1.773672	1906.391968
1.773749	2006.399292
1.773826	1998.046143
1.773904	2081.959717
1.773981	2037.499268
1.774058	1896.809448
1.774136	2076.926514
1.774213	2048.524170
1.774290	2004.098145
1.774368	2075.905273
1.774445	2075.565186
1.774522	2147.336914
1.774600	1922.673218
1.774677	2002.456421
1.774755	1914.034546
1.774832	2041.836182
1.774909	2125.563477
1.774987	2121.212646
1.775064	2048.835693
1.775142	2048.500000
1.775219	1968.158081
1.775297	2007.832275
1.775374	2031.497314
1.775452	2067.149658
1.775529	2050.820313
1.775607	2038.493164
1.775684	2082.119385
1.775762	2129.727295
1.775840	2173.324219
1.775917	2180.957031
1.775995	2116.699463
1.776072	2076.421631
1.776150	2127.983643
1.776228	2183.520508
1.776305	2071.410400
1.776383	2067.080811
1.776461	2166.488525
1.776538	2162.144531
1.776616	2241.561279
1.776694	2129.533203
1.776772	2208.929443
1.776849	2029.171387
1.776927	2176.318604
1.777005	2171.977051
1.777083	2219.437012
1.777161	2079.634521
1.777238	2190.826904
1.777316	2130.728271
1.777394	2174.181641
1.777472	2261.415771
1.777550	2185.412109
1.777628	2212.914795
1.777706	2256.326172
1.777783	2275.850586
1.777861	2219.784668
1.777939	2287.038086
1.778017	2314.501465
1.778095	2246.528076
1.778173	2345.547852
1.778251	2357.088623
1.778329	2225.554199
1.778407	2280.819824
1.778485	2236.744629
1.778563	2276.101074
1.778641	2259.842285
1.778719	2128.431152
1.778797	2239.251465
1.778875	2175.370605
1.778953	2278.208740
1.779032	2238.152588
1.779110	2348.882080
1.779188	2130.309814
1.779266	2268.785645
1.779344	2375.489990
1.779422	2383.031738
1.779500	2346.961670
1.779579	2318.831055
1.779657	2274.856934
1.779735	2318.072754
1.779813	2373.159668
1.779892	2384.655273
1.779970	2336.738281
1.780048	2304.676758
1.780126	2292.422119
1.780205	2339.550781
1.780283	2271.882568
1.780361	2417.932617
1.780440	2310.706543
1.780518	2349.889160
1.780596	2365.326660
1.780675	2416.351563
1.780753	2388.277832
1.780832	2391.840820
1.780910	2375.638672
1.780988	2414.771973
1.781067	2465.746826
1.781145	2275.701904
1.781224	2370.135498
1.781302	2547.479004
1.781381	2408.850098
1.781459	2380.818359
1.781538	2455.434326
1.781616	2332.676025
1.781695	2490.148926
1.781773	2481.850586
1.781852	2449.884521
1.781931	2378.484619
1.782009	2484.577881
1.782088	2503.887451
1.782166	2381.261230
1.782245	2416.348877
1.782324	2573.601807
1.782402	2514.073242
1.782481	2517.602295
1.782560	2497.494629
1.782638	2422.252686
1.782717	2532.120361
1.782796	2630.140137
1.782875	2515.546387
1.782953	2463.966797
1.783032	2443.887451
1.783111	2620.552490
1.783190	2612.256348
1.783268	2458.423828
1.783347	2638.932861
1.783426	2551.993652
1.783505	2571.234619
1.783584	2614.054688
1.783663	2700.093506
1.783742	2656.426758
1.783820	2679.566895
1.783899	2631.989258
1.783978	2647.270264
1.784057	2603.640381
1.784136	2552.171631
1.784215	2728.415039
1.784294	2590.589844
1.784373	2786.391602
1.784452	2668.220947
1.784531	2565.781738
1.784610	2612.433838
1.784689	2682.602051
1.784768	2497.863525
1.784847	2662.123047
1.784926	2634.248535
1.785005	2575.027832
1.785084	2676.494629
1.785164	2770.092041
1.785243	2644.281250
1.785322	2733.936523
1.785401	2627.753418
1.785480	2725.213135
1.785559	2740.427979
1.785638	2693.009521
1.785718	2868.682861
1.785797	2746.912354
1.785876	2742.551758
1.785955	2691.252197
1.786035	2823.789307
1.786114	2670.821777
1.786193	2772.040527
1.786273	2810.679932
1.786352	2782.861572
1.786431	2747.236816
1.786510	2758.510254
1.786590	2789.312988
1.786669	2784.951904
1.786748	2831.361572
1.786828	2780.138672
1.786907	2830.437988
1.786987	2802.652344
1.787066	2786.583984
1.787146	2899.291748
1.787225	2711.546631
1.787304	2843.733887
1.787384	2862.771240
1.787463	2780.412842
1.787543	2846.241699
1.787622	2892.557373
1.787702	2903.778809
1.787781	2981.246338
1.787861	2793.731934
1.787941	2832.234375
1.788020	2901.885010
1.788100	2897.517334
1.788179	2834.742920
1.788259	2990.010498
1.788339	2954.489502
1.788418	2918.979980
1.788498	3039.135742
1.788578	3003.623779
1.788657	2929.222900
1.788737	2963.750244
1.788817	2776.604492
1.788896	2822.810059
1.788976	3032.276611
1.789056	3031.782471
1.789136	2910.813965
1.789215	3057.993652
1.789295	2898.210205
1.789375	2983.193848
1.789455	2947.753906
1.789535	2951.156738
1.789614	2993.382813
1.789694	3051.122559
1.789774	2961.357666
1.789854	3026.844727
1.789934	3220.348389
1.790014	3072.410156
1.790094	3110.696045
1.790174	3048.140625
1.790254	3086.417969
1.790334	3097.545410
1.790413	3097.040771
1.790493	3158.544434
1.790573	3010.784180
1.790653	2998.671143
1.790734	3060.160400
1.790814	3079.026855
1.790894	3094.014648
1.790974	3159.330078
1.791054	3178.170898
1.791134	3015.093506
1.791214	3084.259521
1.791294	3091.495605
1.791374	3106.466309
1.791454	3163.979492
1.791534	3171.198730
1.791615	3147.482178
1.791695	3158.567871
1.791775	3096.206543
1.791855	3172.998291
1.791935	3064.284912
1.792016	3233.781494
1.792096	3117.367676
1.792176	3205.692383
1.792256	3209.032227
1.792337	3216.231689
1.792417	3312.217773
1.792497	3153.428223
1.792578	3237.815674
1.792658	3364.619385
1.792738	3236.761475
1.792819	3240.091797
1.792899	3278.130615
1.792979	3277.596924
1.793060	3342.604492
1.793140	3326.641357
1.793221	3241.309326
1.793301	3132.884277
1.793381	3405.927246
1.793462	3232.022461
1.793542	3354.747559
1.793623	3331.095703
1.793703	3276.648682
1.793784	3376.208252
1.793864	3356.413330
1.793945	3290.442871
1.794026	3297.603027
1.794106	3323.997070
1.794187	3411.927734
1.794267	3365.220947
1.794348	3364.673340
1.794428	3421.796387
1.794509	3405.863281
1.794590	3443.743652
1.794670	3554.625732
1.794751	3381.147705
1.794832	3503.528564
1.794912	3337.797119
1.794993	3502.388428
1.795074	3375.108154
1.795155	3528.122559
1.795235	3454.617920
1.795316	3404.163818
1.795397	3434.307861
1.795478	3349.344238
1.795559	3502.238037
1.795639	3678.094238
1.795720	3497.264160
1.795801	3531.202148
1.795882	3465.458740
1.795963	3514.722168
1.796044	3368.525879
1.796125	3590.210938
1.796205	3547.486328
1.796286	3577.552246
1.796367	3737.819092
1.796448	3702.749268
1.796529	3480.094971
1.796610	3651.782959
1.796691	3563.162354
1.796772	3520.490234
1.796853	3657.653809
1.796934	3691.487305
1.797015	3633.515869
1.797096	3636.749023
1.797177	3525.276123
1.797258	3700.555664
1.797340	3669.375977
1.797421	3630.562988
1.797502	3694.930176
1.797583	3747.815186
1.797664	3747.205811
1.797745	3693.128418
1.797826	3818.539795
1.797908	3753.014404
1.797989	3733.317871
1.798070	3637.294189
1.798151	3697.759766
1.798232	3903.192383
1.798314	3700.372803
1.798395	3707.399658
1.798476	3645.779785
1.798558	3931.159180
1.798639	3717.029297
1.798720	3762.166016
1.798802	3875.887451
1.798883	3799.048096
1.798964	3855.578613
1.799046	3965.419922
1.799127	3880.985840
1.799208	3983.171387
1.799290	3921.605957
1.799371	3802.958984
1.799453	3905.107178
1.799534	4011.027344
1.799616	3888.618652
1.799697	3967.876953
1.799778	3986.250732
1.799860	3871.511230
1.799942	3920.313965
1.800023	3999.515381
1.800105	3915.239258
1.800186	4028.620605
1.800268	4039.366211
1.800349	4004.515869
1.800431	3988.670410
1.800513	4056.388672
1.800594	4055.729736
1.800676	4085.446045
1.800757	3948.116943
1.800839	3962.658203
1.800921	4125.201172
1.801003	3961.371094
1.801084	3975.903076
1.801166	4020.775391
1.801248	4122.521973
1.801329	4049.805176
1.801411	4197.009766
1.801493	4196.328125
1.801575	4009.931641
1.801656	4210.123535
1.801738	4107.140137
1.801820	3936.001465
1.801902	4033.841064
1.801984	4211.176758
1.802066	4070.395508
1.802148	4213.594727
1.802229	4118.281250
1.802311	4295.487305
1.802393	4169.919434
1.802475	4373.542969
1.802557	4282.047363
1.802639	4201.927734
1.802721	4292.001953
1.802803	4268.619629
1.802885	4347.312500
1.802967	4180.301758
1.803049	4289.215820
1.803131	4220.507813
1.803213	4212.267090
1.803295	4306.013184
1.803377	4335.527344
1.803459	4225.319824
1.803541	4371.873535
1.803623	4371.164063
1.803706	4279.875000
1.803788	4279.180664
1.803870	4316.215332
1.803952	4338.148438
1.804034	4367.618164
1.804116	4280.174805
1.804199	4441.609863
1.804281	4218.467773
1.804363	4451.476563
1.804445	4544.969727
1.804528	4551.768555
1.804610	4351.357422
1.804692	4516.390137
1.804775	4557.085449
1.804857	4371.833008
1.804939	4461.482910
1.805022	4340.299805
1.805104	4460.035156
1.805186	4534.574219
1.805269	4477.400879
1.805351	4533.103516
1.805434	4460.903320
1.805516	4460.179688
1.805598	4647.459961
1.805681	4661.744141
1.805763	4766.235840
1.805846	4570.033691
1.805928	4715.840332
1.806011	4500.924805
1.806093	4721.823730
1.806176	4634.674316
1.806258	4581.349609
1.806341	4599.379395
1.806423	4583.617676
1.806506	4717.996094
1.806589	4660.938965
1.806671	4480.079590
1.806754	4539.377930
1.806836	4752.445801
1.806919	4744.174316
1.807002	4698.408203
1.807084	4693.896973
1.807167	4944.286133
1.807250	4636.156738
1.807333	4702.855957
1.807415	4762.040527
1.807498	4757.522461
1.807581	4756.750977
1.807664	4920.753906
1.807746	4848.814941
1.807829	4851.772461
1.807912	4907.131836
1.807995	4932.533203
1.808078	4815.736816
1.808160	4766.320313
1.808243	4701.957031
1.808326	5041.536133
1.808409	4883.663574
1.808492	4766.969238
1.808575	4870.865723
1.808658	4881.289063
1.808741	4973.922363
1.808824	4928.279785
1.808907	4893.858887
1.808990	4945.357910
1.809073	5060.328125
1.809156	5014.700195
1.809239	5058.687500
1.809322	4986.945801
1.809405	4904.030273
1.809488	5026.376465
1.809571	5085.256836
1.809654	5125.466309
1.809737	5064.959961
1.809820	4989.557129
1.809903	5115.517578
1.809987	5055.042480
1.810070	5162.314941
1.810153	5228.559082
1.810236	5086.120117
1.810319	5014.511719
1.810403	4931.751953
1.810486	5228.895508
1.810569	5228.048340
1.810652	5353.785645
1.810735	5148.182129
1.810819	5206.898438
1.810902	5332.577637
1.810985	5309.390137
1.811069	5189.487793
1.811152	5233.280762
1.811235	5254.746094
1.811319	5172.093262
1.811402	5223.302246
1.811486	5229.890625
1.811569	5359.119141
1.811652	5321.092285
1.811736	5127.037598
1.811819	5222.788086
1.811903	5318.507324
1.811986	5351.066895
1.812070	5413.318359
1.812153	5438.427246
1.812237	5363.313477
1.812320	5280.802246
1.812404	5357.866211
1.812487	5590.717773
1.812571	5422.896973
1.812654	5507.317383
1.812738	5354.395996
1.812822	5420.262695
1.812905	5437.919434
1.812989	5477.807129
1.813072	5491.742676
1.813156	5409.342773
1.813240	5389.944824
1.813323	5437.221680
1.813407	5532.625488
1.813491	5542.837402
1.813575	5601.172363
1.813658	5444.805664
1.813742	5662.272949
1.813826	5576.250977
1.813910	5449.560547
1.813993	5518.959961
1.814077	5617.924316
1.814161	5594.827637
1.814245	5564.344238
1.814329	5585.623047
1.814413	5688.208008
1.814497	5628.160156
1.814580	5497.929688
1.814664	5674.363281
1.814748	5647.589355
1.814832	5617.130859
1.814916	5649.453613
1.815000	5718.684570
1.815084	5795.275391
1.815168	5650.401367
1.815252	5619.966309
1.815336	5781.393555
1.815420	5776.769043
1.815504	5738.951172
1.815588	5712.208496
1.815672	5799.773926
1.815756	5949.980957
1.815840	5960.076172
1.815925	5752.735352
1.816009	6028.156250
1.816093	5758.241699
1.816177	5893.599609
1.816261	5789.524414
1.816345	5987.432129
1.816429	5964.373047
1.816514	5812.481934
1.816598	5760.014160
1.816682	5887.879883
1.816766	5912.682617
1.816851	5908.046875
1.816935	5851.918945
1.817019	6075.302246
1.817104	5971.364746
1.817188	6058.631348
1.817272	6024.569336
1.817356	5946.416016
1.817441	6033.643555
1.817525	6139.212891
1.817610	6016.998047
1.817694	6041.734375
1.817778	5893.869141
1.817863	6116.883301
1.817947	6060.828613
1.818032	6265.391602
1.818116	6091.896484
1.818201	6167.964844
1.818285	6038.564941
1.818370	6213.654297
1.818454	6205.313965
1.818539	6160.308105
1.818623	5990.664063
1.818708	6191.306641
1.818792	6117.003906
1.818877	6244.271484
1.818961	6378.825195
1.819046	6304.527832
1.819131	6314.496094
1.819215	6342.771973
1.819300	6297.808105
1.819385	6391.973633
1.819469	6259.167969
1.819554	6269.134766
1.819639	6443.760254
1.819723	6270.766113
1.819808	6313.647461
1.819893	6316.284180
1.819978	6348.173828
1.820063	6427.583496
1.820147	6368.054688
1.820232	6220.824707
1.820317	6420.811523
1.820402	6474.581055
1.820487	6389.509766
1.820571	6446.918945
1.820656	6453.180664
1.820741	6433.879883
1.820826	6429.188965
1.820911	6515.756348
1.820996	6518.352539
1.821081	6626.771973
1.821166	6545.433594
1.821251	6507.895996
1.821336	6353.655762
1.821421	6640.721680
1.821506	6512.032715
1.821591	6638.574707
1.821676	6557.312500
1.821761	6599.984863
1.821846	6504.179199
1.821931	6557.776367
1.822016	6472.936035
1.822101	6657.633301
1.822186	6674.764648
1.822272	6651.840332
1.822357	6690.808105
1.822442	6562.338379
1.822527	6914.269043
1.822612	6676.649414
1.822697	6697.397461
1.822783	6870.906738
1.822868	6607.951172
1.822953	6861.414063
1.823038	6645.806641
1.823124	6793.766602
1.823209	6825.378418
1.823294	6838.810547
1.823380	6728.708984
1.823465	6843.865723
1.823550	6824.599609
1.823636	6798.076660
1.823721	6851.441406
1.823806	6763.207520
1.823892	7005.304199
1.823977	6935.219238
1.824063	6937.727051
1.824148	6867.675293
1.824233	6993.522949
1.824319	7148.343750
1.824404	6907.861328
1.824490	6917.622070
1.824575	6963.629395
1.824661	7096.607422
1.824746	7077.341797
1.824832	6985.617676
1.824918	7035.206055
1.825003	7012.336914
1.825089	7105.363281
1.825174	6861.614746
1.825260	7128.409668
1.825346	6946.271484
1.825431	7144.202637
1.825517	7121.337402
1.825603	7185.310547
1.825688	7357.785156
1.825774	6886.410645
1.825860	7181.829102
1.825945	7158.975098
1.826031	7204.814941
1.826117	7181.964355
1.826203	7054.317871
1.826288	7226.617188
1.826374	7286.866699
1.826460	7357.932617
1.826546	7158.108398
1.826632	7203.895020
1.826717	7274.939453
1.826803	7226.836914
1.826889	7330.337402
1.826975	7231.720215
1.827061	7216.120117
1.827147	7229.384766
1.827233	7441.023926
1.827319	7237.868652
1.827405	7243.911621
1.827491	7437.419434
1.827577	7306.454102
1.827663	7326.898438
1.827749	7376.162598
1.827835	7439.822754
1.827921	7438.621094
1.828007	7365.387207
1.828093	7522.645020
1.828179	7449.420410
1.828265	7390.619141
1.828351	7493.806152
1.828438	7532.182617
1.828524	7430.217773
1.828610	7493.774902
1.828696	7539.326172
1.828782	7282.762695
1.828868	7536.891602
1.828955	7586.008789
1.829041	7620.730957
1.829127	7493.707031
1.829213	7668.579590
1.829300	7624.226563
1.829386	7400.269043
1.829472	7679.233398
1.829558	7516.389648
1.829645	7712.660645
1.829731	7607.304688
1.829818	7720.939453
1.829904	7558.193359
1.829990	7528.266602
1.830077	7878.648926
1.830163	7837.918457
1.830250	7542.554688
1.830336	7645.331055
1.830422	7597.486328
1.830509	7728.898926
1.830595	7677.472168
1.830682	7697.734863
1.830768	7746.655762
1.830855	7842.133789
1.830941	7779.975098
1.831028	7914.811035
1.831115	7995.891602
1.831201	7769.048340
1.831288	7975.413086
1.831374	7848.858887
1.831461	7858.327637
1.831547	7774.768066
1.831634	7891.564941
1.831721	7922.481934
1.831807	8032.064453
1.831894	7748.296875
1.831981	8083.097656
1.832068	8088.941895
1.832154	8009.012207
1.832241	7832.628906
1.832328	7806.355957
1.832415	8022.996094
1.832501	7903.840332
1.832588	8027.549316
1.832675	8044.105957
1.832762	8039.238281
1.832849	8009.387207
1.832936	8000.957520
1.833022	8060.324219
1.833109	7966.268066
1.833196	8143.330078
1.833283	8013.626953
1.833370	8269.071289
1.833457	8264.171875
1.833544	8284.226563
1.833631	8247.249023
1.833718	8196.029297
1.833805	8116.323242
1.833892	8050.891602
1.833979	8142.198730
1.834066	8023.366211
1.834153	7986.465332
1.834240	7942.456543
1.834327	8005.246094
1.834414	8092.926758
1.834501	8109.413086
1.834589	8186.375488
1.834676	8377.142578
1.834763	8169.508301
1.834850	8196.638672
1.834937	8156.206543
1.835024	8218.878906
1.835111	8341.953125
1.835199	8500.526367
1.835286	8456.516602
1.835373	8320.154297
1.835461	8343.676758
1.835548	8360.087891
1.835635	8429.756836
1.835722	8300.586914
1.835810	8231.803711
1.835897	8365.343750
1.835984	8388.834961
1.836072	8430.057617
1.836159	8496.099609
1.836246	8363.495117
1.836334	8599.748047
1.836421	8332.432617
1.836509	8448.078125
1.836596	8368.735352
1.836684	8278.786133
1.836771	8412.100586
1.836859	8467.429688
1.836946	8572.333008
1.837034	8337.197266
1.837121	8396.052734
1.837209	8511.538086
1.837296	8630.525391
1.837384	8777.790039
1.837471	8627.742188
1.837559	8431.745117
1.837647	8762.930664
1.837734	8365.357422
1.837822	8540.837891
1.837910	8592.500977
1.837997	8520.406250
1.838085	8448.334961
1.838173	8683.771484
1.838260	8558.690430
1.838348	8688.037109
1.838436	8810.277344
1.838524	8664.043945
1.838611	8666.178711
1.838699	8724.806641
1.838787	8486.869141
1.838875	8609.041992
1.838963	8808.816406
1.839051	8634.495117
1.839138	8724.832031
1.839226	8829.249023
1.839314	8707.911133
1.839402	8794.666016
1.839490	8863.762695
1.839578	8837.658203
1.839666	8779.838867
1.839754	8863.000977
1.839842	8833.384766
1.839930	8884.804688
1.840018	8717.822266
1.840106	8906.592773
1.840194	8898.115234
1.840282	8921.325195
1.840370	8983.248047
1.840458	8883.253906
1.840546	8892.378906
1.840634	8852.243164
1.840722	8769.907227
1.840810	9011.183594
1.840898	8844.447266
1.840987	8850.053711
1.841075	8922.454102
1.841163	9254.938477
1.841251	9112.870117
1.841339	8960.306641
1.841428	8951.835938
1.841516	9027.672852
1.841604	9145.630859
1.841692	8807.044922
1.841781	9082.996094
1.841869	8860.374023
1.841957	9044.969727
1.842046	9215.468750
1.842134	9357.841797
1.842222	9124.793945
1.842311	9140.861328
1.842399	9111.332031
1.842487	9011.681641
1.842576	9003.217773
1.842664	9089.400391
1.842753	9105.459961
1.842841	9142.539063
1.842930	9288.219727
1.843018	9174.624023
1.843107	9190.658203
1.843195	9091.122070
1.843284	9079.153320
1.843372	9140.705078
1.843461	9076.227539
1.843549	9487.731445
1.843638	9251.759766
1.843726	8987.875000
1.843815	9406.189453
1.843904	9180.835938
1.843992	9406.655273
1.844081	9160.396484
1.844170	9302.247070
1.844258	9237.833984
1.844347	9292.260742
1.844436	9311.727539
1.844525	9435.994141
1.844613	9500.839844
1.844702	9345.644531
1.844791	9330.170898
1.844880	9520.687500
1.844968	9407.451172
1.845057	9217.467773
1.845146	9446.294922
1.845235	9305.212891
1.845324	9240.920898
1.845412	9424.291016
1.845501	9335.589844
1.845590	9389.874023
1.845679	9423.223633
1.845768	9487.932617
1.845857	9646.717773
1.845946	9084.155273
1.846035	9469.412109
1.846124	9297.200195
1.846213	9229.528320
1.846302	9423.048828
1.846391	9647.842773
1.846480	9590.590820
1.846569	9568.162109
1.846658	9343.898438
1.846747	9352.832031
1.846836	9556.581055
1.846925	9565.476563
1.847015	9671.748047
1.847104	9315.511719
1.847193	9557.378906
1.847282	9455.032227
1.847371	9477.837891
1.847460	9451.986328
1.847550	9478.259766
1.847639	9469.785156
1.847728	9464.787109
1.847817	9265.315430
1.847907	9357.572266
1.847996	9682.399414
1.848085	9642.658203
1.848175	9509.224609
1.848264	9643.021484
1.848353	9568.611328
1.848442	9626.041016
1.848532	9614.085938
1.848621	9647.214844
1.848711	9649.127930
1.848800	9834.770508
1.848889	9698.010742
1.848979	9564.760742
1.849068	9642.914063
1.849158	9793.792969
1.849247	9629.416992
1.849337	9780.249023
1.849426	9633.241211
1.849516	9853.266602
1.849605	9858.603516
1.849695	9722.035156
1.849785	9737.772461
1.849874	9556.289063
1.849964	9710.420898
1.850053	9854.126953
1.850143	9717.668945
1.850233	9674.611328
1.850322	9593.540039
1.850412	9730.257813
1.850502	9808.179688
1.850591	9716.757813
1.850681	9808.475586
1.850771	9986.522461
1.850861	9791.501953
1.850950	9900.429688
1.851040	9909.193359
1.851130	9804.034180
1.851220	9909.454102
1.851310	9793.975586
1.851399	9947.668945
1.851489	9859.819336
1.851579	9851.333008
1.851669	9804.913086
1.851759	9934.367188
1.851849	9839.680664
1.851939	9917.379883
1.852029	9874.424805
1.852119	10131.286133
1.852208	9957.381836
1.852298	9845.541992
1.852389	9916.288086
1.852479	9794.158203
1.852569	10071.484375
1.852659	10025.107422
1.852749	9975.303711
1.852839	10138.893555
1.852929	10075.323242
1.853019	9980.808594
1.853109	9948.242188
1.853199	9833.141602
1.853289	9920.967773
1.853379	10122.227539
1.853470	10130.911133
1.853560	9978.045898
1.853650	9811.483398
1.853740	10060.734375
1.853830	9990.405273
1.853921	9861.704102
1.854011	10076.483398
1.854101	10129.802734
1.854191	9942.774414
1.854282	10202.061523
1.854372	10049.403320
1.854462	10106.123047
1.854553	10066.754883
1.854643	9989.663086
1.854733	10200.712891
1.854824	10079.041016
1.854914	9737.961914
1.855004	9832.386719
1.855095	10084.458008
1.855185	10134.243164
1.855276	10225.131836
1.855366	10079.589844
1.855457	9879.285156
1.855547	10271.570313
1.855638	10194.579102
1.855728	10216.905273
1.855819	10451.471680
1.855909	10210.193359
1.856000	10270.150391
1.856091	10182.955078
1.856181	10064.998047
1.856272	10237.828125
1.856362	10239.599609
1.856453	10056.718750
1.856544	10140.574219
1.856634	10374.810547
1.856725	10301.366211
1.856816	10415.896484
1.856907	10315.134766
1.856997	10289.560547
1.857088	10325.476563
1.857179	10135.985352
1.857270	10257.277344
1.857360	10231.728516
1.857451	10250.562500
1.857542	10238.673828
1.857633	10189.253906
1.857724	10365.027344
1.857815	9851.672852
1.857905	10133.174805
1.857996	10339.562500
1.858087	10440.186523
1.858178	10077.147461
1.858269	10419.784180
1.858360	10234.078125
1.858451	10062.060547
1.858542	10295.514648
1.858633	10368.796875
1.858724	10350.099609
1.858815	10205.415039
1.858906	10026.730469
1.858997	10331.487305
1.859088	10574.880859
1.859179	10477.894531
1.859270	10166.583984
1.859362	10345.250000
1.859453	10391.204102
1.859544	10318.115234
1.859635	10098.836914
1.859726	10158.407227
1.859817	10421.909180
1.859909	10100.759766
1.860000	10153.503906
1.860091	10528.998047
1.860182	10224.970703
1.860273	10399.940430
1.860365	10367.704102
1.860456	10335.477539
1.860547	10238.759766
1.860639	10108.129883
1.860730	10232.071289
1.860821	10308.467773
1.860913	10174.497070
1.861004	10240.701172
1.861096	10466.286133
1.861187	10044.119141
1.861278	10435.794922
1.861370	10369.708008
1.861461	10201.960938
1.861553	10488.368164
1.861644	10357.926758
1.861736	10193.649414
1.861827	10124.266602
1.861919	10339.381836
1.862010	10283.541016
1.862102	10285.271484
1.862193	10375.011719
1.862285	10464.722656
1.862376	10209.246094
1.862468	10346.321289
1.862560	10243.171875
1.862651	10356.521484
1.862743	10185.768555
1.862835	10299.089844
1.862926	10324.478516
1.863018	10234.934570
1.863110	10321.156250
1.863201	10302.600586
1.863293	10358.376953
1.863385	10211.459961
1.863477	10290.875000
1.863569	10258.827148
1.863660	10317.950195
1.863752	10478.326172
1.863844	10436.137695
1.863936	10306.221680
1.864028	10250.578125
1.864120	10279.291016
1.864212	10088.747070
1.864303	10103.987305
1.864395	10223.751953
1.864487	10289.535156
1.864579	10297.992188
1.864671	10367.112305
1.864763	10274.460938
1.864855	10266.069336
1.864947	10304.841797
1.865039	10205.507813
1.865131	10264.483398
1.865223	10471.589844
1.865315	10281.379883
1.865408	10195.576172
1.865500	10207.398438
1.865592	10185.566406
1.865684	10227.665039
1.865776	10209.200195
1.865868	10194.105469
1.865960	10353.876953
1.866053	10258.069336
1.866145	10427.864258
1.866237	10120.325195
1.866329	10219.514648
1.866421	10194.350586
1.866514	10135.598633
1.866606	10147.404297
1.866698	10112.187500
1.866791	10308.675781
1.866883	10186.153320
1.866975	10466.485352
1.867068	10216.439453
1.867160	10335.601563
1.867252	10105.787109
1.867345	10201.446289
1.867437	10357.447266
1.867530	9872.869141
1.867622	10313.879883
1.867715	10134.539063
1.867807	10075.926758
1.867900	10141.333984
1.867992	10260.333008
1.868085	10000.708008
1.868177	10123.041992
1.868270	10027.634766
1.868362	10029.370117
1.868455	10171.728516
1.868547	10173.439453
1.868640	10191.885742
1.868733	10307.375977
1.868825	10034.691406
1.868918	10294.023438
1.869011	10098.362305
1.869103	10233.858398
1.869196	10024.892578
1.869289	10173.729492
1.869381	10018.325195
1.869474	9919.789063
1.869567	10068.570313
1.869660	10234.008789
1.869752	10302.516602
1.869845	10093.773438
1.869938	10235.750977
1.870031	10163.985352
1.870124	10179.042969
1.870216	10107.308594
1.870309	10235.842773
1.870402	9957.235352
1.870495	10079.078125
1.870588	9954.032227
1.870681	9999.125000
1.870774	9970.839844
1.870867	10105.937500
1.870960	10064.308594
1.871053	10122.685547
1.871146	9904.439453
1.871239	9989.480469
1.871332	10047.840820
1.871425	9949.625977
1.871518	10001.313477
1.871611	9809.900391
1.871704	10131.271484
1.871797	9826.717773
1.871891	9948.284180
1.871984	10066.484375
1.872077	10001.647461
1.872170	9940.158203
1.872263	10025.040039
1.872356	9787.308594
1.872450	9905.437500
1.872543	9873.923828
1.872636	9895.603516
1.872729	9977.099609
1.872823	9835.930664
1.872916	9917.409180
1.873009	9945.711914
1.873103	10030.466797
1.873196	10018.891602
1.873289	9688.572266
1.873383	9779.966797
1.873476	9864.693359
1.873569	9707.129883
1.873663	9688.977539
1.873756	9707.325195
1.873850	9861.666992
1.873943	9879.979492
1.874037	9699.326172
1.874130	9654.665039
1.874224	9679.631836
1.874317	9581.958008
1.874411	9792.504883
1.874504	9900.270508
1.874598	9653.530273
1.874691	9671.851563
1.874785	9693.478516
1.874879	9655.496094
1.874972	9905.554688
1.875066	9890.721680
1.875160	9505.215820
1.875253	9659.213867
1.875347	9727.139648
1.875441	9679.263672
1.875534	9608.249023
1.875628	9619.932617
1.875722	9929.188477
1.875816	9828.415039
1.875909	9621.902344
1.876003	9577.392578
1.876097	9622.112305
1.876191	9577.616211
1.876285	9691.689453
1.876378	9591.049805
1.876472	9341.843750
1.876566	9591.266602
1.876660	9517.099609
1.876754	9565.078125
1.876848	9477.738281
1.876942	9555.402344
1.877036	9530.773438
1.877130	9351.124023
1.877224	9494.728516
1.877318	9555.852539
1.877412	9702.674805
1.877506	9565.964844
1.877600	9396.340820
1.877694	9431.077148
1.877788	9360.371094
1.877882	9322.629883
1.877976	9275.018555
1.878070	9355.856445
1.878165	9509.105469
1.878259	9352.847656
1.878353	9420.465820
1.878447	9244.526367
1.878541	9351.625977
1.878635	9297.483398
1.878730	9404.540039
1.878824	9320.804688
1.878918	9536.339844
1.879012	9219.170898
1.879107	9257.136719
1.879201	9466.003906
1.879295	9310.026367
1.879390	9160.669922
1.879484	9201.905273
1.879578	9118.307617
1.879673	9313.891602
1.879767	9217.167969
1.879862	9130.325195
1.879956	9184.661133
1.880050	9071.594727
1.880145	9155.455078
1.880239	9180.230469
1.880334	9021.291992
1.880428	9170.718750
1.880523	9080.700195
1.880617	9082.518555
1.880712	9002.376953
1.880807	9053.375000
1.880901	8904.440430
1.880996	8870.240234
1.881090	9075.217773
1.881185	8978.762695
1.881280	8882.337891
1.881374	8848.163086
1.881469	8961.334961
1.881564	8923.884766
1.881658	8824.256836
1.881753	8986.465820
1.881848	8775.610352
1.881943	8744.755859
1.882037	8919.982422
1.882132	8833.516602
1.882227	8809.206055
1.882322	8905.872070
1.882416	8587.358398
1.882511	8739.589844
1.882606	8685.899414
1.882701	8661.631836
1.882796	8715.774414
1.882891	8799.294922
1.882986	8892.586914
1.883081	8776.874023
1.883176	8716.698242
1.883271	8744.674805
1.883365	8677.995117
1.883461	8614.600586
1.883555	8626.265625
1.883650	8520.493164
1.883746	8652.845703
1.883841	8586.234375
1.883936	8669.625977
1.884031	8609.552734
1.884126	8582.092773
1.884221	8499.240234
1.884316	8455.514648
1.884411	8649.625977
1.884506	8599.375000
1.884602	8330.933594
1.884697	8694.298828
1.884792	8383.602539
1.884887	8154.387207
1.884982	8397.179688
1.885078	8552.031250
1.885173	8407.494141
1.885268	8350.838867
1.885363	8089.285645
1.885459	8380.674805
1.885554	8203.741211
1.885649	8179.664551
1.885745	8480.649414
1.885840	8352.535156
1.885936	8198.465820
1.886031	8281.620117
1.886126	8182.835449
1.886222	8324.427734
1.886317	8319.841797
1.886413	8273.047852
1.886508	8106.153320
1.886604	8364.516602
1.886699	8200.906250
1.886795	8215.811523
1.886890	8175.558594
1.886986	8093.150391
1.887082	8049.687012
1.887177	7986.781250
1.887273	7979.012207
1.887368	8259.753906
1.887464	8099.609863
1.887560	8179.322754
1.887655	8058.123535
1.887751	7800.901367
1.887847	7887.101563
1.887942	7918.218262
1.888038	8010.847656
1.888134	7915.671875
1.888230	7852.896484
1.888325	7883.998535
1.888421	7873.022461
1.888517	7878.227539
1.888613	7851.081543
1.888709	7620.178711
1.888804	7745.073242
1.888900	7808.494629
1.888996	7871.895020
1.889092	7902.952148
1.889188	7843.509277
1.889284	7868.097656
1.889380	7676.219238
1.889476	7697.596680
1.889572	7609.156738
1.889668	7685.433594
1.889764	7642.225098
1.889860	7602.258301
1.889956	7552.621582
1.890052	7483.638184
1.890148	7534.059570
1.890244	7519.943848
1.890340	7580.020020
1.890436	7478.825195
1.890532	7496.969727
1.890628	7457.076172
1.890725	7449.429688
1.890821	7731.851563
1.890917	7305.247070
1.891013	7465.167969
1.891109	7396.318359
1.891206	7517.521973
1.891302	7381.058105
1.891398	7431.388672
1.891495	7346.491211
1.891591	7393.591797
1.891687	7311.945313
1.891783	7262.502930
1.891880	7293.507813
1.891976	7330.935547
1.892072	7361.918457
1.892169	7302.852051
1.892265	7230.943848
1.892362	7184.775391
1.892458	7315.399902
1.892555	7195.319336
1.892651	7120.260742
1.892748	7038.800293
1.892844	7108.334473
1.892941	7226.019043
1.893037	6961.550781
1.893134	7188.378906
1.893230	7180.803223
1.893327	7109.039063
1.893423	6995.581543
1.893520	7039.375000
1.893616	7025.411133
1.893713	6998.621582
1.893810	6840.356934
1.893906	6941.861816
1.894003	7014.480957
1.894100	6965.271973
1.894197	6829.547852
1.894293	7030.323242
1.894390	6776.090332
1.894487	6775.000488
1.894584	6863.588867
1.894680	6881.698730
1.894777	6944.627441
1.894874	6863.479492
1.894971	6910.386230
1.895068	6829.269531
1.895165	6911.363770
1.895262	6907.052734
1.895358	6861.160645
1.895455	6645.780273
1.895552	6775.814941
1.895649	6803.499023
1.895746	6463.563477
1.895843	6734.192871
1.895940	6579.721191
1.896037	6537.126953
1.896134	6746.916992
1.896231	6563.770996
1.896328	6735.166016
1.896425	6536.115234
1.896523	6598.914551
1.896620	6671.269043
1.896717	6469.132324
1.896814	6637.213379
1.896911	6530.860840
1.897008	6453.251953
1.897105	6586.169922
1.897203	6508.576660
1.897300	6370.428223
1.897397	6302.458008
1.897494	6397.065918
1.897591	6453.400391
1.897689	6589.375488
1.897786	6422.651855
1.897883	6208.202148
1.897981	6321.856934
1.898078	6346.314453
1.898175	6278.434082
1.898273	6379.289063
1.898370	6390.994141
1.898468	6399.512695
1.898565	6338.030273
1.898662	6225.667969
1.898760	6237.389160
1.898857	6411.297363
1.898955	6219.484375
1.899052	6046.808105
1.899150	6188.875977
1.899247	6305.472168
1.899345	6294.924805
1.899442	6341.569336
1.899540	6165.834961
1.899638	6260.126465
1.899735	6116.217285
1.899833	5953.303711
1.899930	6168.217773
1.900028	6078.351563
1.900126	5867.918457
1.900223	5968.512695
1.900321	6040.520996
1.900419	6106.162109
1.900517	5984.661621
1.900614	6050.290527
1.900712	6017.612305
1.900810	6108.573730
1.900908	5923.761230
1.901006	5932.315430
1.901103	5785.611816
1.901201	5803.688965
1.901299	5916.783203
1.901397	5963.335449
1.901495	5905.380371
1.901593	5948.753418
1.901691	5843.337891
1.901789	5905.695801
1.901887	5898.416992
1.901984	5758.257324
1.902083	5757.331055
1.902181	5648.867676
1.902279	5825.050781
1.902377	5786.171387
1.902475	5661.948730
1.902573	5740.058594
1.902671	5849.746094
1.902769	5675.015625
1.902867	5819.430664
1.902965	5730.047852
1.903063	5716.493164
1.903161	5674.522461
1.903260	5660.980469
1.903358	5824.221191
1.903456	5390.877930
1.903554	5554.109375
1.903653	5679.424805
1.903751	5571.250488
1.903849	5570.354492
1.903947	5645.146973
1.904045	5565.408691
1.904144	5463.626953
1.904242	5475.356934
1.904341	5417.745605
1.904439	5615.397949
1.904537	5456.961426
1.904636	5497.035645
1.904734	5533.946777
1.904832	5523.608887
1.904931	5551.058105
1.905029	5361.276855
1.905128	5373.004883
1.905226	5356.404785
1.905325	5276.877441
1.905423	5389.288574
1.905522	5460.770508
1.905620	5403.279785
1.905719	5254.614746
1.905818	5244.336914
1.905916	5243.493164
1.906015	5371.515625
1.906114	5307.799805
1.906212	5228.394531
1.906311	5280.959473
1.906410	5258.122559
1.906508	5304.384766
1.906607	5077.448242
1.906706	5343.491699
1.906804	5311.241699
1.906903	5137.768066
1.907002	5108.699219
1.907101	5202.002930
1.907200	5132.151367
1.907298	5181.509766
1.907397	5237.124023
1.907496	5186.113281
1.907595	5172.738770
1.907694	5046.526855
1.907793	5287.031738
1.907892	5167.108887
1.907991	4959.500977
1.908090	5099.664063
1.908188	4910.925293
1.908288	4916.397949
1.908386	4997.012207
1.908486	5061.947266
1.908584	4885.855469
1.908684	4844.386719
1.908783	4821.704102
1.908882	4949.194336
1.908981	5010.957031
1.909080	4991.385742
1.909179	4824.855469
1.909278	4949.135742
1.909377	4954.591309
1.909477	4944.417969
1.909576	4893.623535
1.909675	4799.103516
1.909774	4960.774414
1.909873	4928.742188
1.909973	4859.245117
1.910072	4949.012695
1.910171	4804.608887
1.910271	4835.049316
1.910370	4740.644531
1.910469	4889.660645
1.910568	4785.916992
1.910668	4576.147461
1.910767	4753.187988
1.910867	4802.316895
1.910966	4661.239258
1.911065	4863.119141
1.911165	4734.544434
1.911264	4593.544922
1.911364	4505.561035
1.911463	4691.758789
1.911563	4591.327637
1.911662	4621.732422
1.911762	4717.518555
1.911862	4486.369629
1.911961	4728.451660
1.912061	4649.881348
1.912160	4751.824707
1.912260	4592.379883
1.912359	4597.862793
1.912459	4547.356934
1.912559	4633.701172
1.912659	4632.955078
1.912758	4706.822266
1.912858	4578.621582
1.912958	4612.071289
1.913057	4505.678711
1.913157	4498.739746
1.913257	4557.036133
1.913357	4463.126953
1.913457	4592.833984
1.913556	4334.390625
1.913656	4507.537598
1.913756	4624.758789
1.913856	4385.055176
1.913956	4474.332520
1.914056	4467.407715
1.914156	4404.650879
1.914256	4372.928223
1.914356	4486.956543
1.914456	4557.542969
1.914556	4479.312500
1.914656	4469.293457
1.914756	4480.969238
1.914856	4350.116211
1.914956	4216.207520
1.915056	4333.229004
1.915156	4357.306152
1.915256	4341.123047
1.915356	4479.738770
1.915456	4231.387207
1.915557	4376.165527
1.915657	4152.665039
1.915757	4281.939941
1.915857	4330.744629
1.915957	4376.440918
1.916057	4267.502441
1.916158	4418.318359
1.916258	4244.488770
1.916358	4209.805664
1.916458	4274.026367
1.916559	4106.483398
1.916659	4303.544434
1.916759	4287.406738
1.916860	4336.131348
1.916960	4215.004395
1.917061	4161.839844
1.917161	4229.082031
1.917262	4179.018066
1.917362	4258.579590
1.917462	4020.315674
1.917563	4312.736816
1.917663	4194.833984
1.917764	4150.983398
1.917864	4153.398438
1.917965	4007.831299
1.918066	4115.071777
1.918166	4139.064941
1.918267	4055.198975
1.918367	4180.865723
1.918468	4121.663574
1.918569	4179.519043
1.918669	4061.826172
1.918770	4082.725098
1.918871	4134.401855
1.918971	4118.346191
1.919072	4074.598145
1.919173	4061.634033
1.919273	4165.581055
1.919374	3989.577881
1.919475	4035.068115
1.919576	4000.593262
1.919677	4039.917725
1.919777	4008.526855
1.919878	3891.087402
1.919979	3915.044922
1.920080	3938.994873
1.920181	3944.504639
1.920282	4069.802979
1.920383	4066.076416
1.920484	3890.399658
1.920585	4018.716064
1.920686	4057.973145
1.920787	3989.800049
1.920888	3903.237061
1.920989	4074.421387
1.921090	3742.465088
1.921191	3984.163330
1.921292	3919.123047
1.921393	3786.648926
1.921494	3930.123047
1.921595	3883.513428
1.921696	3934.986572
1.921798	3958.865967
1.921899	3924.528320
1.922000	3798.306885
1.922101	3852.822998
1.922202	3907.321533
1.922304	4010.788818
1.922405	3933.613525
1.922506	3822.795166
1.922607	3996.610352
1.922709	3873.578857
1.922810	3915.783691
1.922911	3835.626465
1.923013	3883.940186
1.923114	3837.448730
1.923216	3775.685791
1.923317	3830.099121
1.923418	3808.088379
1.923520	3874.701660
1.923621	3828.248535
1.923723	3861.234375
1.923824	3869.775146
1.923926	3728.677490
1.924027	3837.995605
1.924129	3874.010986
1.924230	3839.811523
1.924332	3765.949219
1.924433	3740.931885
1.924535	3615.244873
1.924637	3654.316895
1.924738	3733.024658
1.924840	3662.287842
1.924942	3567.182617
1.925043	3752.559326
1.925145	3694.044922
1.925247	3766.587402
1.925348	3610.588135
1.925450	3591.728027
1.925552	3658.159668
1.925654	3709.342773
1.925756	3535.183350
1.925857	3759.903564
1.925959	3683.198486
1.926061	3664.344238
1.926163	3718.527588
1.926265	3565.803711
1.926367	3595.649414
1.926468	3595.070068
1.926570	3524.547119
1.926672	3703.370850
1.926774	3626.772949
1.926876	3699.137939
1.926978	3662.073242
1.927080	3640.213135
1.927182	3484.684082
1.927284	3584.363281
1.927386	3614.156982
1.927488	3580.171631
1.927591	3606.919922
1.927693	3569.911133
1.927795	3651.284912
1.927897	3514.136719
1.927999	3580.322266
1.928101	3585.812744
1.928203	3564.002686
1.928306	3496.708740
1.928408	3562.854004
1.928510	3538.026123
1.928612	3552.612061
1.928715	3473.239990
1.928817	3545.406738
1.928919	3508.478027
1.929022	3532.146973
1.929124	3510.375977
1.929226	3421.989502
1.929329	3509.244629
1.929431	3448.132568
1.929533	3541.408936
1.929636	3540.838379
1.929738	3522.112305
1.929841	3448.935547
1.929943	3527.026855
1.930046	3490.165527
1.930148	3380.741943
1.930251	3579.743652
1.930353	3385.698242
1.930456	3460.713867
1.930558	3360.431152
1.930661	3411.254639
1.930764	3510.397705
1.930866	3407.134766
1.930969	3506.246338
1.931072	3421.134033
1.931174	3423.601807
1.931277	3371.734375
1.931380	3350.064209
1.931482	3385.735352
1.931585	3330.881836
1.931688	3411.793457
1.931791	3378.066162
1.931893	3498.147217
1.931996	3358.886230
1.932099	3382.462158
1.932202	3535.640381
1.932305	3287.947021
1.932407	3329.601807
1.932510	3295.925049
1.932613	3247.197998
1.932716	3403.285889
1.932819	3378.646973
1.932922	3375.091553
1.933025	3440.773926
1.933128	3340.895508
1.933231	3328.319580
1.933334	3270.614746
1.933437	3291.145996
1.933540	3314.678467
1.933643	3178.811523
1.933746	3274.520020
1.933849	3258.959961
1.933953	3366.648193
1.934056	3309.001709
1.934159	3365.562500
1.934262	3265.872070
1.934365	3301.393555
1.934468	3312.875244
1.934572	3228.256348
1.934675	3230.738281
1.934778	3269.244141
1.934881	3184.672852
1.934985	3367.226074
1.935088	3405.690918
1.935191	3240.134766
1.935295	3413.591553
1.935398	3260.084229
1.935501	3154.604736
1.935605	3250.038330
1.935708	3255.509521
1.935812	3114.114990
1.935915	3311.397705
1.936018	3226.968506
1.936122	3262.397461
1.936225	3210.951416
1.936329	3138.558105
1.936432	3317.711426
1.936536	3257.299561
1.936639	3268.747803
1.936743	3166.462891
1.936847	3186.898926
1.936950	3258.190674
1.937054	3257.665283
1.937157	3176.384277
1.937261	3226.709961
1.937365	3208.249512
1.937468	3240.616699
1.937572	3204.225830
1.937676	3200.720459
1.937779	3283.869629
1.937883	3274.377197
1.937987	3208.133301
1.938091	3085.164795
1.938195	3186.195557
1.938298	3242.408691
1.938402	3155.316162
1.938506	3250.316895
1.938610	3058.803955
1.938714	3156.773193
1.938818	3135.381348
1.938922	3200.496094
1.939026	3149.281250
1.939130	3166.664063
1.939234	3109.508301
1.939337	3147.757324
1.939442	3093.603271
1.939546	2988.808838
1.939650	3116.440430
1.939754	3124.874268
1.939858	2999.276123
1.939962	3180.447021
1.940066	3150.159424
1.940170	3173.467041
1.940274	3146.166504
1.940378	3127.802734
1.940482	3154.078125
1.940587	3117.868408
1.940691	3173.882568
1.940795	3176.344482
1.940899	3062.834229
1.941004	3172.346436
1.941108	3115.354004
1.941212	3046.490967
1.941316	3182.697998
1.941421	3081.162598
1.941525	3030.162842
1.941629	3109.871094
1.941734	2984.638184
1.941838	3123.714111
1.941943	3161.804932
1.942047	3045.529053
1.942152	3107.362793
1.942256	3106.861328
1.942360	3150.863770
1.942465	3102.892334
1.942569	3060.868164
1.942674	3110.787354
1.942778	3039.125488
1.942883	3020.847900
1.942988	3020.360352
1.943092	3052.472168
1.943197	3140.872070
1.943301	3116.664307
1.943406	3154.668945
1.943511	3026.808838
1.943616	3082.582520
1.943720	3046.556885
1.943825	3084.547852
1.943930	3069.251465
1.944034	3166.411621
1.944139	2997.249756
1.944244	3135.806641
1.944349	3058.396729
1.944453	3122.964844
1.944558	3051.495850
1.944663	3080.567383
1.944768	3177.615479
1.944873	3052.973877
1.944978	2981.561768
1.945083	3128.805176
1.945188	2959.921387
1.945293	3127.795166
1.945397	3130.243164
1.945503	3050.018066
1.945608	3022.956787
1.945712	3043.130371
1.945818	3078.052734
1.945922	3027.394531
1.946028	3062.308105
1.946133	3082.461914
1.946238	3040.674805
1.946343	3001.849854
1.946448	3116.348633
1.946553	3048.045654
1.946658	3047.553467
1.946764	3117.786377
1.946869	3011.212891
1.946974	3031.348145
1.947079	2924.822754
1.947184	3050.984131
1.947290	3071.103027
1.947395	3008.782715
1.947500	3096.603027
1.947606	3019.583496
1.947711	3066.177246
1.947816	2989.187256
1.947922	3109.311768
1.948027	2882.340088
1.948133	3058.315918
1.948238	3025.479736
1.948343	2951.497803
1.948449	2918.689209
1.948554	2965.238525
1.948660	2991.204590
1.948765	2931.964600
1.948871	3069.547363
1.948976	2972.134277
1.949082	2980.463623
1.949187	3076.868408
1.949293	3011.791016
1.949399	3002.499756
1.949504	2861.157715
1.949610	2998.595947
1.949716	3001.045166
1.949821	2924.299805
1.949927	3000.075928
1.950033	2949.744629
1.950138	3046.013672
1.950244	3007.416016
1.950350	3018.653320
1.950456	3067.979980
1.950562	3000.099365
1.950667	3002.544189
1.950773	2996.201416
1.950879	2963.505371
1.950985	3027.440430
1.951091	3021.096436
1.951197	2888.895996
1.951303	2935.252930
1.951409	2841.146729
1.951514	2986.964111
1.951620	2907.505127
1.951726	2874.864990
1.951832	2856.855957
1.951939	3002.576172
1.952044	3060.554443
1.952150	2887.621094
1.952257	2922.221191
1.952363	2907.140381
1.952469	3011.836670
1.952575	3034.716553
1.952681	3028.385498
1.952787	2951.979980
1.952893	2945.664063
1.953000	2977.296387
1.953106	2997.244385
1.953212	2938.400635
1.953318	2987.523438
1.953424	2989.957764
1.953531	2919.477051
1.953637	2994.823730
1.953743	3119.711426
1.953850	2903.486328
1.953956	2972.969482
1.954062	3004.545166
1.954169	2983.663574
1.954275	2986.094727
1.954382	3000.176025
1.954488	2880.286133
1.954594	2920.586426
1.954701	3027.835693
1.954807	2899.266357
1.954914	2904.618652
1.955020	2933.248779
1.955127	3063.702148
1.955234	2917.755615
1.955340	2931.826904
1.955447	2922.628662
1.955553	2927.971680
1.955660	2939.126953
1.955767	2897.958496
1.955873	2970.145264
1.955980	2987.099609
1.956087	3012.764160
1.956193	3012.277344
1.956300	2930.468994
1.956407	2848.687256
1.956514	2868.550537
1.956620	2836.154785
1.956727	2905.355225
1.956834	3018.062744
1.956941	2974.052246
1.957048	2903.946289
1.957154	2862.868896
1.957261	3036.412598
1.957368	2885.140381
1.957475	2878.875732
1.957582	2936.384277
1.957689	2935.909424
1.957796	2978.901367
1.957903	2926.268311
1.958010	2914.208008
1.958117	2957.182129
1.958224	2994.350586
1.958331	2860.677002
1.958438	2834.159912
1.958545	2952.375732
1.958652	2957.686279
1.958759	2968.782227
1.958867	2858.365234
1.958974	2855.010254
1.959081	3028.077393
1.959188	2917.704102
1.959295	2862.299316
1.959403	2856.054932
1.959510	2945.191650
1.959617	2993.842041
1.959724	2869.116211
1.959832	2952.429688
1.959939	2928.844971
1.960046	2919.707520
1.960154	2956.772461
1.960261	2884.119141
1.960368	2900.971924
1.960476	3013.059570
1.960583	2917.347168
1.960690	2989.003906
1.960798	2936.596191
1.960905	2924.584473
1.961013	3085.600830
1.961120	2906.338867
1.961228	2897.220459
1.961336	2867.928467
1.961443	2930.865723
1.961551	2820.898193
1.961658	2947.203369
1.961766	3050.423584
1.961874	2808.009277
1.961981	2957.291504
1.962089	2968.329346
1.962197	2947.698975
1.962304	2863.755859
1.962412	3007.176514
1.962520	2914.619141
1.962627	2954.422119
1.962735	2769.862061
1.962843	3028.237549
1.962951	2886.855469
1.963058	3033.007568
1.963166	3009.521484
1.963274	2994.664795
1.963382	2856.252686
1.963490	2913.250977
1.963598	2970.230957
1.963706	2897.947998
1.963814	2828.559814
1.963922	2905.623779
1.964030	2953.955566
1.964138	2850.148926
1.964246	3007.525391
1.964354	2857.834473
1.964462	2914.749023
1.964570	2940.092773
1.964678	2893.730225
1.964786	2924.803955
1.964894	2895.660889
1.965002	2963.988770
1.965110	2900.455811
1.965219	2954.432861
1.965327	3068.560059
1.965435	2921.965088
1.965543	2912.899658
1.965651	2972.566895
1.965760	3026.488037
1.965868	2845.640625
1.965976	2911.014160
1.966084	2910.543213
1.966193	2918.656250
1.966301	2883.852295
1.966410	2897.687988
1.966518	2957.279785
1.966626	2850.996826
1.966735	2944.885986
1.966843	3053.038086
1.966952	2943.932617
1.967060	2854.866699
1.967169	2837.260986
1.967277	3008.209717
1.967386	2942.026855
1.967494	2970.109375
1.967603	3003.893555
1.967711	3000.552246
1.967820	3079.992188
1.967928	2882.565674
1.968037	3044.752197
1.968146	2890.191650
1.968254	2903.986816
1.968363	2823.655762
1.968472	2931.563721
1.968580	3025.180420
1.968689	2939.166992
1.968798	3038.452637
1.968907	2866.968506
1.969015	2889.299561
1.969124	3022.732178
1.969233	2951.030518
1.969342	2947.704590
1.969451	3072.520020
1.969560	2872.725342
1.969669	2991.819092
1.969777	2937.257080
1.969886	3030.690186
1.969995	2831.031250
1.970104	2884.624023
1.970213	3009.307617
1.970322	2977.537598
1.970431	2979.898682
1.970540	2911.185303
1.970649	3024.413574
1.970758	2984.135254
1.970868	2929.661865
1.970977	2997.374268
1.971086	2917.350342
1.971195	2899.836670
1.971304	2896.527344
1.971413	2975.557617
1.971522	3006.302734
1.971632	2855.383057
1.971741	2979.787598
1.971850	2911.206543
1.971959	2865.343506
1.972068	2941.465088
1.972178	2915.464111
1.972287	2914.991699
1.972396	2923.024902
1.972506	2970.740967
1.972615	2913.575195
1.972724	2822.423096
1.972834	2957.964111
1.972943	2849.836914
1.973053	2951.340820
1.973162	2865.905029
1.973272	2919.238525
1.973381	2879.131348
1.973491	3014.531006
1.973600	2982.911621
1.973710	2908.857910
1.973819	2922.532471
1.973929	2825.882813
1.974039	2913.100586
1.974148	2983.323486
1.974258	2943.257324
1.974367	3021.932861
1.974477	2973.394043
1.974587	2981.390137
1.974697	2935.698730
1.974806	2858.946777
1.974916	2903.677002
1.975026	2846.723633
1.975135	2919.677734
1.975245	2888.149170
1.975355	2980.832031
1.975465	3104.530273
1.975575	2974.222168
1.975685	2880.634521
1.975794	2922.481445
1.975904	2910.725830
1.976014	3102.014893
1.976124	2954.895264
1.976234	2864.205078
1.976344	3015.947510
1.976454	2928.094727
1.976564	2924.802490
1.976674	2955.318115
1.976784	3044.977295
1.976894	2878.318359
1.977004	2936.985840
1.977114	2863.308105
1.977224	2890.993652
1.977335	3008.735352
1.977445	3019.503906
1.977555	3010.573486
1.977665	3029.777344
1.977775	2930.841309
1.977885	3042.856201
1.977996	2929.891113
1.978106	2850.698486
1.978216	2957.049805
1.978327	2979.053711
1.978437	3076.919678
1.978547	2944.373535
1.978658	2935.468750
1.978768	2923.758301
1.978878	2867.121338
1.978989	2942.464111
1.979099	2883.034912
1.979210	2919.055420
1.979320	2969.095947
1.979430	2985.449707
1.979541	2962.522217
1.979651	2933.991943
1.979762	2849.380859
1.979872	2963.885010
1.979983	2926.957520
1.980094	2948.907959
1.980204	2968.048340
1.980315	2970.369141
1.980425	2835.401855
1.980536	2885.365723
1.980647	2904.503906
1.980757	2974.043213
1.980868	3012.760254
1.980979	2947.882813
1.981090	2897.021484
1.981200	2991.704102
1.981311	2996.814941
1.981422	2948.768066
1.981533	2942.695068
1.981644	3014.934082
1.981754	2930.554932
1.981865	3013.955811
1.981976	2840.150635
1.982087	2915.154053
1.982198	2992.927490
1.982309	2939.354736
1.982420	2899.767090
1.982531	2932.814453
1.982642	2909.997070
1.982753	3018.422607
1.982864	2923.011719
1.982975	3036.982422
1.983086	3047.653320
1.983197	2946.702881
1.983308	2962.964600
1.983419	3023.853516
1.983530	2956.424805
1.983642	2978.253906
1.983753	3008.440674
1.983864	2882.504883
1.983975	2965.655029
1.984086	3054.351807
1.984198	3073.360840
1.984309	2980.926758
1.984420	3002.726563
1.984532	2890.838867
1.984643	2948.845215
1.984754	3031.889893
1.984865	2961.806396
1.984977	3019.772705
1.985088	3019.282471
1.985200	2957.582031
1.985311	2971.010986
1.985422	2956.621826
1.985534	3003.417725
1.985645	2964.003418
1.985757	3055.263428
1.985868	2907.449219
1.985980	2901.418945
1.986091	3014.874023
1.986203	2956.041504
1.986315	3005.561768
1.986426	2938.417725
1.986538	3021.247070
1.986650	2859.723633
1.986761	2942.538574
1.986873	2919.856445
1.986985	3055.361328
1.987096	2910.584473
1.987208	2968.369629
1.987320	2937.376465
1.987432	2950.765869
1.987543	2875.420410
1.987655	3024.661621
1.987767	2977.047852
1.987879	2959.935547
1.987991	3120.174072
1.988103	2920.186035
1.988214	2969.573975
1.988326	3035.563965
1.988438	2882.763428
1.988550	3040.115479
1.988662	2881.827148
1.988774	3014.217041
1.988886	2916.867432
1.988998	2938.529541
1.989110	3029.347656
1.989222	2890.551514
1.989334	2890.082031
1.989447	2931.090332
1.989559	2894.672607
1.989671	2952.252197
1.989783	2965.591797
1.989895	2967.873291
1.990007	2950.813721
1.990119	2947.571777
1.990232	2985.761475
1.990344	2913.475098
1.990456	2797.033691
1.990568	2992.588379
1.990681	2953.458740
1.990793	2958.498291
1.990905	2969.055176
1.991018	2946.501465
1.991130	2874.302979
1.991242	2904.173828
1.991355	2854.066162
1.991467	2994.214600
1.991580	2999.241211
1.991692	2927.092529
1.991805	2890.791992
1.991917	2926.141113
1.992030	3030.350342
1.992142	3046.384521
1.992255	3032.119385
1.992367	3045.394287
1.992480	2954.047852
1.992592	3008.620361
1.992705	3151.244629
1.992818	3026.904541
1.992930	2976.889404
1.993043	2937.893799
1.993156	2959.419189
1.993269	2947.938477
1.993381	3007.948242
1.993494	2902.995361
1.993607	2951.998291
1.993720	2929.533203
1.993832	2871.354980
1.993945	2950.558838
1.994058	2875.915039
1.994171	2916.643066
1.994284	2973.833252
1.994397	2987.077148
1.994510	2874.045166
1.994623	2868.088623
1.994736	2927.993408
1.994848	2976.903809
1.994962	2927.041260
1.995075	2910.108643
1.995188	3013.844727
1.995301	2895.452637
1.995414	2873.050049
1.995527	2957.554443
1.995640	2798.120361
1.995753	3005.914795
1.995866	2876.661133
1.995979	2936.456299
1.996092	2925.023682
1.996206	3110.755127
1.996319	2915.858643
1.996432	2986.558105
1.996545	2898.488037
1.996659	2892.543457
1.996772	2911.225830
1.996885	2979.144043
1.996999	2951.307129
1.997112	3013.727051
1.997225	2892.926025
1.997339	2906.125000
1.997452	2946.653809
1.997565	2937.975586
1.997679	2869.183594
1.997792	2947.948242
1.997906	2999.370361
1.998019	2927.870605
1.998133	2962.894287
1.998246	2894.153809
1.998360	2940.091064
1.998473	2819.517090
1.998587	2868.180420
1.998700	2905.913574
1.998814	2880.887695
1.998928	2877.691162
1.999041	2863.586914
1.999155	2822.219238
1.999269	2928.087158
1.999382	2938.514160
1.999496	3006.172363
1.999610	2953.907959
1.999724	2901.660400
1.999838	2906.636475
1.999951	2976.979004
2.000065	2823.993408
2.000179	2992.346924
2.000293	2844.853027
2.000407	2966.875732
2.000521	2980.000244
2.000635	2848.906250
2.000748	3003.515381
2.000862	2924.142578
2.000976	2874.712158
2.001091	2904.156006
2.001204	2939.027588
2.001318	2943.986084
2.001432	2861.969238
2.001547	2945.745117
2.001661	2991.455078
2.001775	2947.502686
2.001889	2911.712891
2.002003	2881.365967
2.002117	2848.313721
2.002231	2880.427734
2.002346	3002.105957
2.002460	2811.641357
2.002574	2860.026611
2.002688	2827.004150
2.002802	2935.048340
2.002917	2831.508057
2.003031	2982.903809
2.003145	2822.451904
2.003260	2990.064941
2.003374	2862.188965
2.003489	2791.263672
2.003603	2988.604492
2.003717	2871.627197
2.003832	2895.537109
2.003946	2824.652344
2.004061	2891.886475
2.004175	2845.390869
2.004290	2850.341309
2.004404	2882.354248
2.004519	2871.060791
2.004633	2881.415283
2.004748	2843.074463
2.004862	2931.865479
2.004977	2866.486328
2.005092	2906.576172
2.005206	2822.298828
2.005321	2894.817627
2.005436	2805.164551
2.005550	2945.213135
2.005665	2750.218750
2.005780	2871.322510
2.005895	2895.161133
2.006010	2918.991943
2.006124	2867.219482
2.006239	2891.046875
2.006354	2925.662109
2.006469	2935.979492
2.006584	2919.312744
2.006699	2881.070068
2.006814	2856.325928
2.006928	2899.008545
2.007043	2876.965576
2.007159	2989.723389
2.007273	2835.596436
2.007388	2897.119141
2.007504	2872.395996
2.007618	2831.516113
2.007734	2817.586426
2.007849	2892.537842
2.007964	2762.812012
2.008079	2775.823486
2.008194	2845.361084
2.008309	2931.024658
2.008425	2863.270752
2.008540	2903.163086
2.008655	2886.548828
2.008770	2848.422119
2.008885	2947.461670
2.009001	2769.516846
2.009116	2876.601807
2.009231	2959.460205
2.009346	2894.476807
2.009462	2743.527344
2.009577	2906.966309
2.009693	2874.257813
2.009808	2803.958740
2.009923	2886.747314
2.010039	2840.633301
2.010154	2861.645752
2.010270	2917.543945
2.010386	2994.892334
2.010501	2836.097656
2.010617	2883.924316
2.010732	2910.276855
2.010848	2823.983154
2.010963	2804.752686
2.011079	2865.957764
2.011194	2723.421875
2.011310	2859.662842
2.011426	2832.399658
2.011541	2856.050781
2.011657	2775.221436
2.011773	2822.979004
2.011889	2817.162842
2.012004	2797.960938
2.012120	2877.815674
2.012236	2807.754639
2.012352	2823.353516
2.012468	2747.972656
2.012583	2747.524414
2.012699	2795.223633
2.012815	2818.837402
2.012931	2874.531006
2.013047	2879.409180
2.013163	2763.995850
2.013279	2787.598877
2.013395	2808.521973
2.013511	2706.535156
2.013627	2895.760498
2.013743	2887.275391
2.013859	2828.053467
2.013975	2782.200928
2.014091	2779.077393
2.014208	2866.707031
2.014324	2884.920410
2.014440	2817.741699
2.014556	2777.263672
2.014672	2944.859619
2.014788	2869.702637
2.014905	2842.568604
2.015021	2855.435303
2.015137	2774.998047
2.015254	2833.181152
2.015370	2718.130859
2.015486	2832.256348
2.015603	2855.769775
2.015719	2802.032959
2.015835	2870.816162
2.015952	2689.286621
2.016068	2800.661133
2.016185	2824.159912
2.016301	2815.714844
2.016418	2868.473633
2.016534	2809.474609
2.016651	2878.177490
2.016767	2750.045898
2.016884	2770.870361
2.017000	2733.195313
2.017117	2793.890381
2.017234	2721.671387
2.017350	2731.856689
2.017467	2821.749268
2.017583	2818.631836
2.017700	2765.048584
2.017817	2706.171387
2.017934	2676.521484
2.018050	2758.384521
2.018167	2747.316406
2.018284	2738.906006
2.018401	2820.718506
2.018517	2849.442139
2.018634	2819.797119
2.018751	2782.205322
2.018868	2779.099121
2.018985	2685.846924
2.019102	2772.889404
2.019219	2804.242676
2.019336	2734.882568
2.019453	2803.326660
2.019570	2744.585938
2.019687	2667.322998
2.019804	2748.986084
2.019921	2722.057617
2.020038	2785.152588
2.020155	2771.462402
2.020272	2710.137451
2.020390	2783.787842
2.020507	2714.543457
2.020624	2767.006348
2.020741	2800.937744
2.020858	2636.523682
2.020976	2755.073975
2.021093	2707.039307
2.021210	2659.020020
2.021327	2695.583740
2.021445	2729.493164
2.021562	2715.837646
2.021679	2805.202637
2.021797	2683.258057
2.021914	2711.865723
2.022031	2777.426025
2.022149	2721.538330
2.022266	2710.536377
2.022384	2720.648682
2.022501	2738.672852
2.022619	2725.035400
2.022736	2690.301758
2.022854	2726.781738
2.022971	2752.702881
2.023089	2728.526611
2.023206	2675.364014
2.023324	2645.937256
2.023442	2687.664307
2.023559	2703.031982
2.023677	2721.028809
2.023795	2731.118652
2.023912	2691.173584
2.024030	2624.913330
2.024148	2719.249756
2.024266	2697.749512
2.024384	2602.573730
2.024501	2762.644775
2.024619	2683.273193
2.024737	2677.573975
2.024855	2724.472412
2.024973	2745.062012
2.025091	2723.581543
2.025208	2780.963379
2.025326	2633.335938
2.025445	2590.863037
2.025563	2671.883057
2.025681	2653.058594
2.025798	2702.525391
2.025917	2654.816650
2.026035	2735.772949
2.026153	2674.948730
2.026271	2700.757813
2.026389	2653.080078
2.026507	2621.160645
2.026625	2733.536133
2.026743	2698.990967
2.026861	2632.987061
2.026980	2614.201904
2.027098	2653.098633
2.027216	2636.937256
2.027334	2657.472168
2.027453	2704.203857
2.027571	2664.462402
2.027689	2640.450928
2.027808	2674.066895
2.027926	2731.239258
2.028044	2670.573730
2.028163	2680.607666
2.028281	2758.689697
2.028400	2548.884277
2.028518	2702.840332
2.028637	2532.353760
2.028755	2579.020752
2.028874	2547.216064
2.028992	2580.791504
2.029111	2666.642822
2.029229	2689.731689
2.029348	2665.770020
2.029467	2631.363770
2.029585	2610.031738
2.029704	2640.951172
2.029823	2601.342041
2.029941	2692.313965
2.030060	2655.320068
2.030179	2733.200684
2.030298	2597.029053
2.030416	2604.432861
2.030535	2525.729736
2.030654	2561.839355
2.030773	2660.538086
2.030892	2503.625732
2.031011	2555.366211
2.031129	2612.303711
2.031248	2593.629395
2.031367	2548.898682
2.031486	2478.124512
2.031605	2641.857666
2.031724	2503.362549
2.031843	2573.274902
2.031962	2531.187744
2.032081	2535.980469
2.032200	2626.678955
2.032319	2558.575439
2.032439	2511.313232
2.032557	2497.892090
2.032677	2533.904541
2.032796	2614.124268
2.032915	2652.706299
2.033034	2662.672852
2.033154	2506.246338
2.033273	2615.011230
2.033392	2583.395020
2.033511	2486.824951
2.033631	2556.567139
2.033750	2535.366699
2.033869	2493.394775
2.033989	2555.311035
2.034108	2567.874512
2.034227	2544.089600
2.034347	2530.694824
2.034466	2535.470459
2.034586	2467.592041
2.034705	2563.177002
2.034825	2503.097900
2.034944	2492.313721
2.035064	2507.463623
2.035183	2491.497070
2.035303	2483.312256
2.035423	2498.455811
2.035542	2521.368164
2.035662	2422.500488
2.035781	2517.951416
2.035901	2517.538574
2.036021	2506.767578
2.036140	2464.929199
2.036260	2511.123291
2.036380	2422.707520
2.036500	2492.184570
2.036619	2447.788330
2.036739	2405.993652
2.036859	2446.985840
2.036979	2425.894775
2.037099	2487.556641
2.037219	2435.441162
2.037339	2484.156250
2.037459	2465.656982
2.037578	2426.490967
2.037699	2361.500732
2.037818	2386.946289
2.037939	2430.463379
2.038059	2430.064697
2.038178	2416.756348
2.038299	2421.523193
2.038419	2418.544922
2.038539	2394.921631
2.038659	2502.901855
2.038779	2453.473633
2.038899	2440.173828
2.039020	2457.826904
2.039140	2377.486572
2.039260	2436.395264
2.039380	2456.617676
2.039500	2430.441406
2.039621	2460.965820
2.039741	2411.608643
2.039861	2465.310547
2.039982	2459.754883
2.040102	2490.254150
2.040222	2386.853271
2.040343	2484.288574
2.040463	2429.827637
2.040584	2465.458496
2.040704	2513.943359
2.040825	2397.759277
2.040945	2345.920410
2.041066	2492.131348
2.041186	2383.722168
2.041307	2406.469971
2.041427	2493.475342
2.041548	2457.083740
2.041668	2412.994873
2.041789	2410.029541
2.041910	2425.047363
2.042031	2386.122070
2.042151	2406.275146
2.042272	2339.121582
2.042393	2418.321289
2.042513	2420.491211
2.042634	2453.456787
2.042755	2455.620117
2.042876	2480.872314
2.042997	2429.162842
2.043118	2459.540527
2.043238	2428.365479
2.043359	2445.913818
2.043480	2399.370361
2.043601	2486.118896
2.043722	2416.520752
2.043843	2321.323975
2.043964	2377.301270
2.044085	2333.368408
2.044206	2468.713135
2.044327	2332.602051
2.044448	2434.621826
2.044569	2403.506104
2.044690	2423.585205
2.044812	2343.864502
2.044933	2312.778809
2.045054	2366.116211
2.045175	2322.249512
2.045296	2309.082520
2.045418	2336.826904
2.045539	2400.350342
2.045660	2295.165771
2.045781	2366.341064
2.045903	2342.957275
2.046024	2401.328369
2.046145	2291.103760
2.046267	2400.539307
2.046388	2384.824951
2.046510	2272.104492
2.046631	2289.598877
2.046753	2365.785156
2.046874	2314.363281
2.046995	2321.636719
2.047117	2374.822754
2.047239	2333.625977
2.047360	2435.242188
2.047482	2317.561768
2.047603	2337.574219
2.047725	2286.215332
2.047847	2204.293457
2.047968	2257.437256
2.048090	2282.541016
2.048212	2322.918945
2.048333	2325.083740
2.048455	2339.979004
2.048577	2342.140137
2.048699	2237.394531
2.048820	2384.634766
2.048942	2195.946289
2.049064	2312.615234
2.049186	2241.011230
2.049308	2304.225342
2.049430	2286.046387
2.049551	2344.146973
2.049674	2295.462891
2.049795	2282.377441
2.049917	2370.944336
2.050040	2258.760010
2.050161	2248.227051
2.050283	2245.317627
2.050405	2247.488037
2.050528	2295.361572
2.050650	2201.052246
2.050772	2314.913086
2.050894	2220.631592
2.051016	2225.341309
2.051138	2280.790039
2.051260	2189.096924
2.051383	2257.214111
2.051505	2218.806152
2.051627	2188.016846
2.051749	2245.960938
2.051872	2210.108154
2.051994	2247.756104
2.052116	2184.044189
2.052239	2173.551758
2.052361	2175.727051
2.052484	2226.018066
2.052606	2218.055908
2.052728	2141.742676
2.052851	2232.513428
2.052973	2232.145996
2.053096	2171.050049
2.053218	2289.600342
2.053341	2170.335938
2.053463	2225.619141
2.053586	2215.138184
2.053709	2262.811035
2.053831	2247.271729
2.053954	2226.682373
2.054076	2211.153564
2.054199	2203.209961
2.054322	2139.692383
2.054445	2189.855957
2.054567	2156.665771
2.054690	2229.534424
2.054813	2153.431396
2.054936	2168.221680
2.055058	2190.578125
2.055181	2124.612061
2.055304	2134.354004
2.055427	2179.406982
2.055550	2126.085205
2.055673	2171.124512
2.055796	2175.809570
2.055919	2170.409912
2.056042	2245.664063
2.056165	2144.495605
2.056288	2113.907715
2.056411	2186.614990
2.056534	2140.917725
2.056657	2138.046875
2.056780	2099.926514
2.056903	2074.406006
2.057026	2053.927734
2.057149	2222.205322
2.057273	2163.965820
2.057396	2098.198242
2.057519	2087.791016
2.057642	2140.261963
2.057765	1999.093018
2.057889	2051.561279
2.058012	2124.122314
2.058136	2081.045654
2.058259	2065.625244
2.058382	2095.435303
2.058506	2125.235352
2.058629	2147.490234
2.058753	2129.557617
2.058876	2139.250244
2.058999	2073.626465
2.059123	2115.955322
2.059246	2105.568359
2.059370	2012.380859
2.059494	2112.400879
2.059617	2076.935547
2.059741	2124.244629
2.059864	2113.864502
2.059988	2116.023193
2.060112	2090.607422
2.060235	2060.187256
2.060359	2047.318237
2.060483	2139.683838
2.060606	1946.440674
2.060730	2066.343506
2.060854	2055.985840
2.060978	2065.662354
2.061101	2072.832275
2.061225	2092.514648
2.061349	2074.651611
2.061473	2086.820557
2.061597	2091.480225
2.061721	2028.601440
2.061845	2135.807617
2.061969	2132.955078
2.062093	2000.097046
2.062217	2137.251221
2.062341	2106.907471
2.062465	2059.081299
2.062589	1926.322632
2.062713	2058.402344
2.062837	2078.044189
2.062961	2007.778809
2.063085	2022.428711
2.063210	1997.131104
2.063334	2109.121826
2.063458	2036.401978
2.063582	1963.705933
2.063706	2005.793091
2.063831	1985.507446
2.063955	1967.722412
2.064079	1954.930176
2.064204	1932.169678
2.064328	2004.139648
2.064452	1963.932251
2.064577	1991.019165
2.064701	1925.912231
2.064825	2045.165771
2.064950	2007.468628
2.065074	1962.312988
2.065199	2009.296143
2.065324	2013.943481
2.065448	1931.473877
2.065573	1970.972778
2.065697	1978.112183
2.065822	2032.516968
2.065946	2024.719482
2.066071	1982.107056
2.066195	1956.914551
2.066320	2036.148071
2.066445	2038.297852
2.066570	1941.034058
2.066694	2007.806274
2.066819	2007.474854
2.066944	1873.002808
2.067069	1977.008179
2.067194	1996.547974
2.067318	1949.044189
2.067443	2005.818848
2.067568	1953.364868
2.067693	1903.409912
2.067818	1970.088623
2.067943	1887.896606
2.068068	2019.046265
2.068193	1944.313232
2.068318	1911.757690
2.068443	1904.004517
2.068568	1921.041504
2.068693	1990.118164
2.068818	1937.752808
2.068943	1942.387939
2.069068	1855.367798
2.069193	1864.968262
2.069319	1981.046753
2.069444	1938.629395
2.069569	1923.456299
2.069694	1955.314697
2.069819	1905.498291
2.069945	1917.554932
2.070070	1956.819946
2.070195	1916.921631
2.070321	1946.281494
2.070446	1953.377930
2.070571	1925.860840
2.070697	1920.598999
2.070822	1860.968018
2.070948	1937.261597
2.071073	1894.941528
2.071199	1902.039063
2.071324	1807.873413
2.071450	1926.104248
2.071575	1864.062134
2.071701	1873.628296
2.071826	1878.255005
2.071952	1924.831543
2.072078	1914.644287
2.072203	1961.199341
2.072329	1812.884644
2.072454	1864.373169
2.072580	1866.530762
2.072706	1836.638916
2.072832	1858.519287
2.072958	1858.212158
2.073083	1857.905029
2.073209	1823.106689
2.073335	1832.658447
2.073461	1918.554932
2.073587	1864.064209
2.073713	1880.990356
2.073838	1895.449097
2.073964	1794.225952
2.074090	1875.135986
2.074217	1808.395142
2.074342	1901.576050
2.074469	1911.099976
2.074594	1866.518799
2.074721	1817.034668
2.074847	1814.275879
2.074973	1740.237061
2.075099	1808.760864
2.075225	1911.661987
2.075351	1857.297485
2.075477	1839.796021
2.075603	1927.905273
2.075730	1767.977295
2.075856	1772.595215
2.075982	1853.307495
2.076109	1884.906982
2.076235	1896.864746
2.076361	1810.678711
2.076488	1869.253296
2.076614	1800.268921
2.076741	1809.780273
2.076867	1789.865967
2.076993	1828.793335
2.077120	1777.018433
2.077246	1808.583008
2.077373	1800.932983
2.077499	1832.483032
2.077626	1849.325928
2.077753	1824.529541
2.077879	1794.844116
2.078006	1804.340088
2.078132	1892.162964
2.078259	1767.031738
2.078386	1752.057251
2.078512	1810.485840
2.078639	1827.309570
2.078766	1905.272583
2.078892	1802.250854
2.079019	1701.708252
2.079146	1794.320679
2.079273	1730.475098
2.079400	1749.738892
2.079527	1776.326172
2.079654	1795.575806
2.079780	1805.048828
2.079907	1821.845093
2.080034	1814.218262
2.080161	1757.766968
2.080288	1725.743774
2.080415	1764.506592
2.080542	1727.612549
2.080669	1841.993652
2.080796	1722.161743
2.080923	1819.433350
2.081050	1716.714478
2.081177	1723.744507
2.081305	1767.337769
2.081432	1749.984009
2.081559	1752.131104
2.081686	1783.515381
2.081814	1829.505737
2.081941	1702.546875
2.082068	1685.217896
2.082195	1816.422363
2.082323	1730.914795
2.082450	1728.193970
2.082577	1727.907715
2.082705	1710.588501
2.082832	1664.080688
2.082960	1714.886719
2.083087	1719.466797
2.083215	1714.318604
2.083342	1765.090942
2.083470	1738.059082
2.083597	1659.996704
2.083724	1759.353516
2.083852	1783.358398
2.083980	1746.624268
2.084107	1734.190674
2.084235	1682.906128
2.084363	1723.903809
2.084490	1774.598389
2.084618	1677.215088
2.084746	1740.034668
2.084874	1717.908447
2.085001	1656.973145
2.085129	1719.764526
2.085257	1697.652588
2.085385	1690.096680
2.085513	1677.694458
2.085641	1667.720337
2.085768	1684.409058
2.085896	1715.631592
2.086024	1637.817261
2.086152	1698.105835
2.086280	1688.136353
2.086408	1641.845947
2.086536	1656.100952
2.086664	1713.925537
2.086792	1677.335327
2.086920	1706.097168
2.087049	1657.422363
2.087177	1657.147461
2.087305	1659.291382
2.087433	1717.057617
2.087561	1724.026855
2.087689	1651.213135
2.087818	1718.620605
2.087946	1631.331177
2.088074	1710.801270
2.088202	1741.925293
2.088331	1710.233765
2.088459	1639.909790
2.088587	1683.103760
2.088716	1709.382813
2.088844	1641.507690
2.088973	1646.062500
2.089101	1624.070801
2.089230	1674.469727
2.089358	1705.552734
2.089487	1717.329712
2.089615	1555.468872
2.089744	1678.180908
2.089872	1591.114380
2.090001	1639.057861
2.090129	1682.165527
2.090258	1665.019287
2.090387	1628.605225
2.090515	1630.743774
2.090644	1765.342285
2.090773	1615.754517
2.090901	1687.713745
2.091030	1646.511475
2.091159	1651.051758
2.091288	1605.056396
2.091417	1688.999390
2.091546	1732.019409
2.091674	1587.420898
2.091803	1664.110474
2.091932	1620.555176
2.092061	1644.325928
2.092190	1612.806274
2.092319	1574.087524
2.092448	1756.437988
2.092577	1636.026978
2.092706	1606.931396
2.092835	1645.089966
2.092964	1548.769043
2.093093	1572.519775
2.093223	1613.065308
2.093352	1622.397339
2.093481	1533.342773
2.093610	1545.084106
2.093739	1621.589111
2.093868	1597.335693
2.093998	1582.682373
2.094127	1589.612183
2.094256	1536.609619
2.094386	1589.084106
2.094515	1574.441650
2.094645	1569.388062
2.094774	1549.962402
2.094903	1600.004395
2.095033	1561.421387
2.095162	1609.050293
2.095292	1481.899780
2.095421	1625.270996
2.095551	1636.967041
2.095680	1603.195435
2.095810	1576.612183
2.095939	1528.509521
2.096069	1504.339111
2.096198	1561.478760
2.096328	1632.944458
2.096458	1565.740601
2.096588	1577.430664
2.096717	1553.271851
2.096847	1548.235229
2.096977	1593.366089
2.097106	1542.943604
2.097236	1597.612427
2.097366	1513.778564
2.097496	1618.566650
2.097626	1565.786377
2.097756	1536.888306
2.097886	1593.898682
2.098016	1543.534302
2.098145	1614.836182
2.098275	1523.941895
2.098405	1540.379883
2.098536	1537.739624
2.098665	1578.006714
2.098796	1491.945557
2.098926	1563.184448
2.099056	1555.776978
2.099186	1557.900269
2.099316	1560.022827
2.099446	1564.526001
2.099576	1535.694702
2.099707	1542.580811
