#Wave		#Intensity
1.699584	315.627960
1.699649	396.926056
1.699714	396.857391
1.699779	387.227539
1.699844	391.940308
1.699908	367.977844
1.699973	344.023651
1.700038	449.064301
1.700103	410.774994
1.700168	324.742645
1.700233	339.010895
1.700298	396.239990
1.700363	372.305725
1.700428	424.736938
1.700493	372.177002
1.700558	386.424683
1.700623	343.429230
1.700688	410.136230
1.700753	362.383331
1.700818	367.088074
1.700883	462.355713
1.700948	438.447174
1.701013	405.017059
1.701078	314.429504
1.701143	409.640381
1.701208	428.619385
1.701273	380.929199
1.701338	380.863403
1.701403	356.997772
1.701468	437.841644
1.701534	380.666107
1.701599	428.175415
1.701664	399.561401
1.701729	389.980682
1.701794	470.749054
1.701859	413.617157
1.701925	413.545776
1.701990	370.701172
1.702055	375.388947
1.702120	441.837311
1.702186	441.761078
1.702251	455.932739
1.702316	455.854095
1.702381	360.822235
1.702447	417.722076
1.702512	422.396057
1.702577	446.049194
1.702643	336.851410
1.702708	369.998291
1.702773	445.818481
1.702839	440.999664
1.702904	464.629181
1.702969	407.665527
1.703035	417.074219
1.703100	402.786316
1.703166	407.454742
1.703231	487.914001
1.703297	516.247192
1.703362	411.979492
1.703427	445.050568
1.703493	359.766113
1.703558	468.561951
1.703624	397.499207
1.703689	454.206543
1.703755	425.745300
1.703820	482.428223
1.703886	458.700745
1.703952	482.262054
1.704017	519.996948
1.704083	387.567352
1.704148	453.659241
1.704214	463.030731
1.704280	425.159119
1.704345	415.639557
1.704411	481.681091
1.704476	486.319733
1.704542	476.794556
1.704608	462.552734
1.704674	420.001099
1.704739	476.548431
1.704805	424.574066
1.704871	448.084381
1.704936	457.439026
1.705002	466.790466
1.705068	391.282257
1.705134	372.361206
1.705199	490.112732
1.705265	367.521332
1.705331	452.256165
1.705397	475.729340
1.705463	419.134949
1.705528	400.228607
1.705594	418.990845
1.705660	437.746613
1.705726	456.495941
1.705792	447.006805
1.705858	555.134094
1.705924	413.927155
1.705989	413.856018
1.706056	404.380707
1.706121	451.324127
1.706187	441.845612
1.706253	465.268097
1.706319	479.284790
1.706385	507.390839
1.706451	408.661285
1.706517	460.252045
1.706583	446.086060
1.706649	436.619781
1.706715	478.791077
1.706781	431.776611
1.706847	436.394897
1.706913	455.086426
1.706980	440.935883
1.707046	483.070190
1.707112	492.365692
1.707178	468.839203
1.707244	478.133911
1.707310	454.617950
1.707376	463.911896
1.707443	463.832275
1.707509	571.493225
1.707575	416.837463
1.707641	468.276337
1.707707	421.376404
1.707773	402.579498
1.707840	463.355042
1.707906	486.673340
1.707972	524.019836
1.708038	514.574097
1.708105	463.037292
1.708171	453.605194
1.708237	490.931763
1.708303	490.847595
1.708370	453.371948
1.708436	387.870300
1.708503	499.939880
1.708569	476.496521
1.708635	532.463623
1.708702	466.993347
1.708768	494.928101
1.708834	513.516663
1.708901	429.413055
1.708967	555.341309
1.709034	475.925262
1.709100	471.178619
1.709167	494.419586
1.709233	438.372437
1.709299	466.273804
1.709366	484.841705
1.709432	550.014648
1.709499	470.694641
1.709566	479.933136
1.709632	498.485962
1.709699	517.032410
1.709765	502.972443
1.709832	549.449890
1.709898	544.700256
1.709965	572.535645
1.710032	535.205933
1.710098	507.195313
1.710165	525.718018
1.710231	469.809143
1.710298	502.284210
1.710365	478.948364
1.710431	497.463196
1.710498	497.378082
1.710565	520.531006
1.710631	455.386719
1.710698	613.273132
1.710765	534.199585
1.710832	473.730804
1.710898	547.947815
1.710965	492.140137
1.711032	524.550232
1.711099	510.536835
1.711165	556.854065
1.711232	561.398499
1.711299	510.275055
1.711366	542.654358
1.711433	551.836182
1.711500	505.376984
1.711566	542.376160
1.711633	495.934479
1.711700	500.483856
1.711767	523.564941
1.711834	560.535706
1.711901	523.386047
1.711968	560.344238
1.712035	532.467590
1.712102	620.334534
1.712169	583.200012
1.712236	615.494873
1.712303	522.849976
1.712370	504.255859
1.712437	629.055847
1.712504	550.329895
1.712571	545.612122
1.712638	600.995483
1.712705	605.515137
1.712772	563.818604
1.712839	623.791199
1.712906	586.725647
1.712973	577.387329
1.713040	531.105652
1.713107	660.305664
1.713175	586.325256
1.713242	567.761414
1.713309	581.510071
1.713376	479.894684
1.713443	558.243774
1.713511	571.986938
1.713578	544.217285
1.713645	516.457153
1.713712	599.356995
1.713779	502.452087
1.713847	571.499390
1.713914	589.834290
1.713981	548.268066
1.714048	548.174561
1.714116	515.841064
1.714183	547.987732
1.714250	524.873535
1.714318	478.750397
1.714385	607.541199
1.714453	575.225037
1.714520	575.127014
1.714587	588.829712
1.714655	597.928284
1.714722	510.451782
1.714789	547.147888
1.714857	643.593750
1.714924	551.557800
1.714992	565.250488
1.715059	569.748962
1.715127	670.719177
1.715194	633.859497
1.715262	597.012329
1.715329	633.643616
1.715397	596.809021
1.715464	601.297485
1.715532	633.320068
1.715599	568.973328
1.715667	610.165894
1.715734	628.409790
1.715802	600.785889
1.715870	609.854370
1.715937	595.996826
1.716005	600.479248
1.716073	627.875244
1.716140	659.844177
1.716208	591.009827
1.716275	609.232056
1.716343	577.069031
1.716411	613.603943
1.716478	631.812988
1.716546	613.395203
1.716614	613.290894
1.716682	649.794739
1.716749	544.453735
1.716817	635.850403
1.716885	576.284363
1.716953	576.186401
1.717021	667.531067
1.717088	658.274841
1.717156	598.745483
1.717224	607.783264
1.717292	584.834900
1.717360	616.713196
1.717427	602.906006
1.717495	634.770386
1.717563	611.832947
1.717631	643.684937
1.717699	661.833069
1.717767	579.575989
1.717835	542.975037
1.717903	588.503174
1.717971	634.015869
1.718039	624.787170
1.718107	642.919922
1.718175	665.605469
1.718243	738.423096
1.718311	656.264648
1.718379	688.049500
1.718447	669.709351
1.718515	628.599976
1.718583	578.395935
1.718651	642.047119
1.718719	619.174377
1.718787	687.348999
1.718855	664.476318
1.718923	618.859192
1.718992	677.899780
1.719060	664.138062
1.719128	673.121582
1.719196	541.134277
1.719264	609.241150
1.719332	681.870605
1.719401	654.484741
1.719469	618.019653
1.719537	708.784607
1.719605	745.006165
1.719674	635.872986
1.719742	576.729858
1.719810	731.005981
1.719878	671.866699
1.719947	639.980652
1.720015	653.486450
1.720083	617.077026
1.720152	644.191772
1.720220	730.262634
1.720288	734.673828
1.720357	621.192932
1.720425	680.023010
1.720493	688.973145
1.720562	706.984192
1.720630	670.614929
1.720699	702.214172
1.720767	702.095215
1.720835	656.687439
1.720904	729.026001
1.720972	674.574341
1.721041	724.252441
1.721109	674.345825
1.721178	710.431946
1.721246	696.738770
1.721315	655.909180
1.721383	768.866760
1.721452	759.692566
1.721520	691.745728
1.721589	556.015137
1.721658	686.991821
1.721726	691.394409
1.721795	691.277405
1.721864	596.295227
1.721932	790.409058
1.722001	754.148438
1.722069	636.628296
1.722138	672.635193
1.722207	717.657043
1.722275	649.843567
1.722344	717.414185
1.722413	721.804077
1.722481	667.555786
1.722550	748.618347
1.722619	753.000671
1.722688	712.299255
1.722756	766.268311
1.722825	721.071716
1.722894	729.961609
1.722963	752.364075
1.723032	743.227966
1.723101	747.605957
1.723169	788.005554
1.723238	765.361633
1.723307	765.232239
1.723376	715.596191
1.723445	674.976624
1.723514	661.365295
1.723583	674.748474
1.723651	796.068604
1.723720	719.488403
1.723789	827.271851
1.723858	786.674500
1.723927	719.123718
1.723996	683.052063
1.724065	736.852722
1.724134	732.235962
1.724203	794.993042
1.724272	826.293823
1.724341	745.334839
1.724410	745.208923
1.724479	763.036865
1.724549	677.641785
1.724618	776.239929
1.724687	749.191772
1.724756	731.123535
1.724825	811.724060
1.724894	865.393860
1.724963	735.236389
1.725032	735.112244
1.725101	806.694336
1.725171	743.825867
1.725240	654.097839
1.725309	774.930298
1.725378	770.320923
1.725447	837.358704
1.725517	720.812805
1.725586	769.930969
1.725655	845.885986
1.725724	702.548645
1.725794	765.067200
1.725863	876.771179
1.725932	863.205505
1.726002	746.792786
1.726071	737.724670
1.726140	768.892334
1.726210	804.519043
1.726279	768.632996
1.726348	826.587952
1.726418	746.037292
1.726487	768.244202
1.726557	808.306702
1.726626	817.100464
1.726696	825.891235
1.726765	798.970825
1.726834	861.314941
1.726904	821.011597
1.726973	829.795715
1.727043	847.497925
1.727112	820.596497
1.727182	744.654968
1.727251	815.861633
1.727321	766.691528
1.727390	802.216431
1.727460	842.185303
1.727530	810.856628
1.727599	708.266357
1.727669	779.407104
1.727738	788.181824
1.727808	814.762573
1.727878	747.852722
1.727947	952.461487
1.728017	863.300964
1.728087	858.706299
1.728156	831.870667
1.728226	809.491821
1.728296	787.120422
1.728365	844.789246
1.728435	809.082947
1.728505	880.062927
1.728575	822.142578
1.728644	786.458069
1.728714	839.635864
1.728784	821.727417
1.728854	852.676270
1.728923	892.495239
1.728993	763.598755
1.729063	825.613159
1.729133	838.788330
1.729203	834.209900
1.729273	905.054138
1.729343	802.878601
1.729412	829.353821
1.729482	891.294495
1.729552	798.039917
1.729622	811.204102
1.729692	859.820374
1.729762	868.538330
1.729832	806.364258
1.729902	899.255005
1.729972	850.383850
1.730042	845.812561
1.730112	850.097900
1.730182	867.662354
1.730252	929.481934
1.730322	823.117004
1.730392	814.129395
1.730462	813.992554
1.730532	889.048889
1.730602	884.477051
1.730672	955.074646
1.730743	844.391663
1.730813	875.190857
1.730883	857.366089
1.730953	852.803345
1.731023	830.570435
1.731093	927.608948
1.731164	949.535278
1.731234	887.555969
1.731304	856.502136
1.731374	825.458679
1.731444	931.243469
1.731515	970.801636
1.731585	970.638611
1.731655	895.484253
1.731725	912.975891
1.731796	908.412842
1.731866	899.442200
1.731936	912.516052
1.732007	921.177917
1.732077	859.327881
1.732147	885.620056
1.732218	964.767273
1.732288	982.223694
1.732358	916.001038
1.732429	955.475281
1.732499	854.060303
1.732570	893.531677
1.732640	924.187988
1.732710	906.432251
1.732781	963.472595
1.732851	923.722778
1.732922	888.384216
1.732992	949.796021
1.733063	962.826050
1.733133	1011.017517
1.733204	949.318054
1.733274	940.370300
1.733345	997.328247
1.733416	931.269287
1.733486	988.209656
1.733557	904.609070
1.733627	996.659302
1.733698	908.695496
1.733769	926.099487
1.733839	987.381287
1.733910	925.788940
1.733980	890.538635
1.734051	960.567749
1.734122	916.552551
1.734193	916.398865
1.734263	995.156311
1.734334	1038.821655
1.734405	968.527893
1.734475	946.456787
1.734546	981.346252
1.734617	950.519836
1.734688	932.842407
1.734758	1011.504639
1.734829	971.932434
1.734900	971.769592
1.734971	980.359985
1.735042	1002.075134
1.735113	1032.533203
1.735183	923.000061
1.735254	1010.318909
1.735325	892.080261
1.735396	909.419678
1.735467	1049.154663
1.735538	979.046997
1.735609	926.442871
1.735680	987.457642
1.735751	1039.714966
1.735822	1013.333923
1.735893	982.594604
1.735964	1004.261902
1.736035	1034.653076
1.736106	990.830994
1.736177	986.300903
1.736248	1077.767944
1.736319	999.058838
1.736390	1125.388794
1.736461	1007.446960
1.736532	1085.767578
1.736603	911.194519
1.736674	1011.300293
1.736745	984.981079
1.736817	1041.464966
1.736888	1028.220093
1.736959	1006.267456
1.737030	1023.520691
1.737101	971.093323
1.737172	1044.947998
1.737244	1127.484497
1.737315	1057.656006
1.737386	970.443726
1.737457	1057.302124
1.737528	1070.176270
1.737600	1039.550171
1.737671	1048.074097
1.737742	1134.861450
1.737814	1104.239868
1.737885	1064.935181
1.737956	1142.984131
1.738028	1086.305176
1.738099	1033.989624
1.738170	1007.754150
1.738242	1055.359131
1.738313	1120.317505
1.738384	1050.664795
1.738456	1089.557007
1.738527	1154.476929
1.738599	1132.586914
1.738670	980.543579
1.738742	1171.250122
1.738813	1119.007568
1.738885	1045.099854
1.738956	1118.633667
1.739028	1036.080444
1.739099	1131.262939
1.739171	1170.076416
1.739242	1135.217896
1.739314	992.066650
1.739385	1208.473145
1.739457	1177.956299
1.739528	1117.139526
1.739600	1030.367554
1.739672	1116.766479
1.739743	1151.202637
1.739815	1133.701904
1.739887	1146.491821
1.739958	1159.277344
1.740030	1050.960327
1.740101	1119.972290
1.740173	1089.520874
1.740245	1076.370728
1.740317	972.461731
1.740388	1076.011353
1.740460	1183.847046
1.740532	1123.171021
1.740604	1166.175171
1.740675	1118.477661
1.740747	1096.702393
1.740819	1109.470459
1.740891	1178.345825
1.740963	1152.255859
1.741034	1143.433838
1.741106	1164.813721
1.741178	1078.351318
1.741250	1181.675903
1.741322	1172.854858
1.741394	1129.546753
1.741466	1176.774048
1.741538	1198.126831
1.741610	1137.599731
1.741681	1167.568604
1.741753	1158.758667
1.741825	1180.100098
1.741897	1162.678467
1.741969	1257.205444
1.742041	1201.033691
1.742113	1183.617188
1.742185	1161.903198
1.742257	1191.827881
1.742329	1114.194824
1.742401	1212.936523
1.742474	1303.044312
1.742546	1199.632935
1.742618	1233.825317
1.742690	1237.917969
1.742762	1224.818848
1.742834	1216.020874
1.742906	1250.187744
1.742978	1297.229492
1.743051	1339.960815
1.743123	1236.680786
1.743195	1253.647949
1.743267	1189.050171
1.743340	1180.268311
1.743412	1244.439209
1.743484	1261.393677
1.743556	1295.501465
1.743629	1213.794189
1.743701	1226.457031
1.743773	1161.938721
1.743845	1200.327271
1.743918	1178.696411
1.743990	1174.214722
1.744062	1225.436157
1.744135	1336.616821
1.744207	1306.411011
1.744280	1237.671875
1.744352	1156.109985
1.744424	1344.289185
1.744497	1339.784912
1.744569	1279.645386
1.744642	1240.921021
1.744714	1334.837646
1.744786	1274.728882
1.744859	1236.024658
1.744931	1317.066528
1.745004	1440.836182
1.745076	1342.276855
1.745149	1290.764771
1.745221	1286.276611
1.745294	1337.334229
1.745367	1302.936401
1.745439	1324.075684
1.745512	1276.879883
1.745584	1319.365356
1.745657	1293.531372
1.745729	1314.658081
1.745802	1288.833374
1.745875	1365.424072
1.745947	1318.268433
1.746020	1300.987061
1.746093	1369.007813
1.746166	1283.497925
1.746238	1317.391724
1.746311	1278.808350
1.746384	1346.787476
1.746456	1342.302246
1.746529	1363.381958
1.746602	1375.934814
1.746675	1384.224487
1.746747	1430.837158
1.746820	1302.867310
1.746893	1332.449951
1.746966	1349.253662
1.747039	1357.540649
1.747112	1259.452148
1.747184	1335.818481
1.747257	1335.596436
1.747330	1454.452515
1.747403	1407.437988
1.747476	1449.717773
1.747549	1385.716919
1.747622	1385.486694
1.747695	1474.490845
1.747768	1559.216797
1.747841	1427.274658
1.747914	1367.577637
1.747987	1371.596924
1.748060	1371.369141
1.748133	1341.426147
1.748206	1404.868042
1.748279	1425.852783
1.748352	1319.543457
1.748425	1357.504028
1.748498	1268.207275
1.748571	1433.387451
1.748644	1484.030518
1.748717	1394.757080
1.748791	1339.422607
1.748864	1364.628174
1.748937	1427.960693
1.749010	1372.648193
1.749083	1363.948608
1.749156	1456.895752
1.749229	1435.481689
1.749303	1337.866943
1.749376	1401.140747
1.749449	1485.555176
1.749522	1426.065552
1.749596	1434.290771
1.749669	1417.131836
1.749742	1433.814819
1.749816	1471.636475
1.749889	1484.076660
1.749962	1365.462280
1.750035	1415.956543
1.750109	1496.016235
1.750182	1415.486694
1.750256	1440.599731
1.750329	1491.047974
1.750402	1465.461182
1.750476	1435.660400
1.750549	1435.422363
1.750623	1447.847656
1.750696	1502.473145
1.750769	1481.125244
1.750843	1447.127441
1.750916	1493.289063
1.750990	1509.911987
1.751063	1505.444702
1.751137	1619.033325
1.751211	1618.764893
1.751284	1500.481201
1.751358	1555.016235
1.751431	1542.118164
1.751505	1533.437012
1.751578	1520.546753
1.751652	1591.887451
1.751725	1482.146851
1.751799	1528.210571
1.751873	1490.074097
1.751946	1544.538330
1.752020	1506.411743
1.752094	1518.783569
1.752167	1590.041626
1.752241	1518.280273
1.752315	1471.772949
1.752389	1559.820801
1.752462	1635.228516
1.752536	1538.289185
1.752610	1580.057129
1.752684	1554.585815
1.752757	1554.328369
1.752831	1604.473145
1.752905	1633.603882
1.752979	1549.357300
1.753053	1616.270386
1.753127	1569.831177
1.753200	1636.718628
1.753274	1623.859497
1.753348	1585.832764
1.753422	1686.241211
1.753496	1606.277222
1.753570	1597.624878
1.753644	1693.788940
1.753718	1676.741089
1.753792	1538.155273
1.753866	1651.043091
1.753940	1629.820923
1.754014	1658.874756
1.754088	1574.832397
1.754162	1620.636353
1.754236	1666.425171
1.754310	1594.982178
1.754384	1611.460571
1.754458	1569.344727
1.754532	1744.822510
1.754606	1694.331421
1.754680	1547.651611
1.754754	1589.217041
1.754828	1689.309082
1.754902	1630.498779
1.754977	1718.010620
1.755051	1638.318115
1.755125	1688.191406
1.755199	1650.310181
1.755273	1658.391724
1.755347	1666.470703
1.755422	1653.667236
1.755496	1640.868042
1.755570	1703.214844
1.755645	1769.714844
1.755719	1706.824707
1.755793	1552.160889
1.755867	1810.554810
1.755942	1701.807007
1.756016	1672.332764
1.756090	1701.244263
1.756165	1717.639038
1.756239	1663.166748
1.756314	1687.897583
1.756388	1779.291748
1.756462	1674.840820
1.756537	1728.716553
1.756611	1674.287109
1.756685	1823.921753
1.756760	1682.060791
1.756834	1715.085327
1.756909	1752.261230
1.756983	1639.612305
1.757058	1643.502197
1.757132	1738.912354
1.757207	1618.002686
1.757281	1792.400879
1.757356	1733.892456
1.757431	1746.078003
1.757505	1745.789551
1.757580	1757.968994
1.757654	1795.075928
1.757729	1740.769775
1.757804	1769.559570
1.757878	1823.258911
1.757953	1669.314453
1.758028	1801.897461
1.758102	1743.483765
1.758177	1801.302368
1.758252	1784.405762
1.758326	1672.085449
1.758401	1858.487793
1.758476	1841.589966
1.758550	1832.991821
1.758625	1845.128174
1.758700	1786.784180
1.758775	1844.518921
1.758850	1885.657471
1.758924	1814.904663
1.758999	1856.034302
1.759074	1781.167480
1.759149	1905.120361
1.759224	1850.974487
1.759298	1912.771851
1.759373	1895.898071
1.759448	1866.613403
1.759523	1808.371216
1.759598	1948.746582
1.759673	1902.920410
1.759748	1993.600586
1.759823	1823.719482
1.759898	1918.517456
1.759973	1971.943604
1.760048	1938.551270
1.760123	1901.037109
1.760198	1979.231689
1.760273	1941.723145
1.760348	1999.231934
1.760423	1957.602417
1.760498	1866.435303
1.760573	1861.998779
1.760648	1907.098877
1.760723	1902.656982
1.760798	2017.886841
1.760874	1939.162354
1.760949	1971.844116
1.761024	2021.013062
1.761099	1913.460083
1.761174	1929.637207
1.761249	1954.053833
1.761325	1875.417480
1.761400	1850.381592
1.761475	2080.821045
1.761550	2010.442017
1.761626	2059.539551
1.761701	1976.831909
1.761776	2034.154175
1.761851	1947.360962
1.761927	2033.483521
1.762002	2033.148438
1.762077	2032.813232
1.762153	1995.449219
1.762228	1999.234009
1.762303	2003.017456
1.762379	2068.484131
1.762454	2043.473511
1.762529	2030.803955
1.762605	2042.800049
1.762680	1976.710083
1.762756	2009.255615
1.762831	1955.517578
1.762907	2004.486084
1.762982	1995.942017
1.763058	2073.631104
1.763133	2110.239014
1.763209	2019.584839
1.763284	2006.939575
1.763360	1990.195068
1.763435	1993.970093
1.763511	2079.786621
1.763586	2001.516113
1.763662	2083.202393
1.763738	1976.256226
1.763813	1971.831299
1.763889	1979.704102
1.763964	2057.241943
1.764040	2118.364258
1.764116	2109.822021
1.764191	2039.841431
1.764267	2064.077881
1.764343	2092.401123
1.764419	2132.997070
1.764494	2083.525391
1.764570	2074.997070
1.764646	2025.551270
1.764722	2082.496582
1.764797	2180.330078
1.764873	2134.981201
1.764949	2150.987061
1.765025	2252.849365
1.765100	2068.519531
1.765176	2072.266357
1.765252	2210.870850
1.765328	2079.756104
1.765404	2181.546143
1.765480	2185.271973
1.765556	2242.087646
1.765632	2102.887207
1.765708	2237.267090
1.765783	2163.424316
1.765859	2097.768066
1.765935	2125.987061
1.766011	2211.315674
1.766087	2166.080322
1.766163	2198.352539
1.766239	2304.016357
1.766315	2071.235107
1.766391	2180.961670
1.766467	2139.843994
1.766544	2245.447754
1.766620	2310.271240
1.766696	2146.936035
1.766772	2244.340088
1.766848	2264.333740
1.766924	2158.092529
1.767000	2267.660156
1.767076	2267.287354
1.767152	2266.914551
1.767229	2209.572998
1.767305	2123.770752
1.767381	2310.542969
1.767457	2277.625732
1.767533	2216.253418
1.767610	2150.835449
1.767686	2325.284668
1.767762	2174.515381
1.767838	2304.201172
1.767915	2311.948730
1.767991	2266.881104
1.768067	2217.766357
1.768144	2298.625488
1.768220	2314.489746
1.768296	2281.630615
1.768373	2467.977539
1.768449	2301.173340
1.768525	2195.291260
1.768602	2349.103271
1.768678	2397.395264
1.768755	2344.275391
1.768831	2400.662598
1.768908	2266.469482
1.768984	2262.043457
1.769060	2354.894775
1.769137	2330.192871
1.769214	2370.328613
1.769290	2426.655518
1.769367	2248.034424
1.769443	2316.512695
1.769520	2340.427246
1.769596	2340.042725
1.769673	2315.371338
1.769749	2335.227051
1.769826	2391.494873
1.769903	2374.918701
1.769979	2334.076660
1.770056	2398.406006
1.770132	2385.880615
1.770209	2446.136719
1.770286	2409.352295
1.770362	2380.663574
1.770439	2392.396240
1.770516	2436.449707
1.770593	2391.610840
1.770669	2423.531982
1.770746	2419.095703
1.770823	2438.887939
1.770900	2373.891846
1.770976	2373.502197
1.771053	2393.292236
1.771130	2469.569092
1.771207	2453.025391
1.771284	2456.656738
1.771361	2544.985107
1.771437	2540.534912
1.771514	2515.926514
1.771591	2563.888916
1.771668	2422.396729
1.771745	2631.556641
1.771822	2582.773438
1.771899	2469.548096
1.771976	2449.002930
1.772053	2484.846924
1.772130	2500.545898
1.772207	2492.083740
1.772284	2395.067139
1.772361	2616.030518
1.772438	2692.057617
1.772515	2639.312500
1.772592	2506.131104
1.772669	2517.786133
1.772746	2537.479980
1.772823	2593.353516
1.772900	2600.968262
1.772977	2680.929443
1.773054	2660.396240
1.773132	2583.616699
1.773209	2526.949219
1.773286	2550.635254
1.773363	2638.571045
1.773440	2597.984131
1.773517	2681.868408
1.773595	2609.174561
1.773672	2656.908203
1.773749	2624.370361
1.773826	2724.243652
1.773904	2563.337646
1.773981	2711.318115
1.774058	2642.700684
1.774136	2638.258057
1.774213	2778.135498
1.774290	2637.393066
1.774368	2612.915527
1.774445	2692.625000
1.774522	2708.208740
1.774600	2623.647949
1.774677	2651.252197
1.774755	2714.885742
1.774832	2702.430176
1.774909	2866.107910
1.774987	2697.542236
1.775064	2809.145996
1.775142	2908.710205
1.775219	2724.218750
1.775297	2655.778076
1.775374	2663.341064
1.775452	2802.847168
1.775529	2822.376465
1.775607	2694.008545
1.775684	2753.513184
1.775762	2840.968262
1.775840	2648.739014
1.775917	2740.177002
1.775995	2875.516357
1.776072	2910.983398
1.776150	2770.770508
1.776228	2790.275635
1.776305	2909.553467
1.776383	2721.523193
1.776461	2812.844238
1.776538	2800.416016
1.776616	2883.716797
1.776694	2943.062988
1.776772	2822.963867
1.776849	2822.501709
1.776927	2818.053467
1.777005	2893.312500
1.777083	2777.284668
1.777161	2884.397217
1.777238	2812.225098
1.777316	2847.608887
1.777394	2803.340576
1.777472	2986.024414
1.777550	2889.998535
1.777628	2857.684814
1.777706	3008.434814
1.777783	2856.749512
1.777861	2931.865967
1.777939	2915.476318
1.778017	2942.836914
1.778095	2886.688965
1.778173	2973.677734
1.778251	2985.115723
1.778329	3020.395020
1.778407	2936.456055
1.778485	2860.490479
1.778563	3046.718262
1.778641	2998.560547
1.778719	2783.638428
1.778797	3088.896484
1.778875	2977.240723
1.778953	3052.164795
1.779032	3111.190674
1.779110	2991.650635
1.779188	3070.502441
1.779266	2951.007813
1.779344	3006.045654
1.779422	3084.856201
1.779500	2993.168945
1.779579	3103.666260
1.779657	3122.974365
1.779735	3189.826416
1.779813	3086.296143
1.779892	2919.420166
1.779970	3053.602295
1.780048	3001.623779
1.780126	2997.173584
1.780205	2980.849121
1.780283	2956.613770
1.780361	3130.253174
1.780440	3098.087646
1.780518	3168.790039
1.780596	3029.833008
1.780675	3116.342041
1.780753	3163.281982
1.780832	3372.297852
1.780910	3253.162354
1.780988	3055.022461
1.781067	3236.292725
1.781145	3065.876221
1.781224	3278.687256
1.781302	3021.428711
1.781381	3238.126221
1.781459	3213.907227
1.781538	3146.271973
1.781616	3161.545898
1.781695	3157.082764
1.781773	3038.195557
1.781852	3302.018311
1.781931	3325.145264
1.782009	3249.670166
1.782088	3197.878418
1.782166	3130.333740
1.782245	3121.938477
1.782324	3314.547119
1.782402	3132.739990
1.782481	3364.682861
1.782560	3119.898682
1.782638	3166.652344
1.782717	3343.344238
1.782796	3342.797852
1.782875	3228.087891
1.782953	3329.897705
1.783032	3372.643311
1.783111	3419.309570
1.783190	3316.463867
1.783268	3323.789063
1.783347	3295.716553
1.783426	3346.296631
1.783505	3227.803711
1.783584	3388.443848
1.783663	3293.563965
1.783742	3304.814941
1.783820	3296.417236
1.783899	3417.657715
1.783978	3448.521240
1.784057	3396.906250
1.784136	3415.983643
1.784215	3403.648682
1.784294	3391.317383
1.784373	3418.235352
1.784452	3468.687256
1.784531	3370.040527
1.784610	3408.716309
1.784689	3333.643066
1.784768	3348.783936
1.784847	3426.650391
1.784926	3375.130859
1.785005	3437.289795
1.785084	3546.453369
1.785164	3451.840332
1.785243	3400.349854
1.785322	3489.881592
1.785401	3438.401855
1.785480	3437.840576
1.785559	3535.152100
1.785638	3593.289063
1.785718	3533.998291
1.785797	3486.465820
1.785876	3521.107910
1.785955	3575.297119
1.786035	3508.225830
1.786114	3503.742920
1.786193	3573.547363
1.786273	3432.234863
1.786352	3529.387695
1.786431	3540.535645
1.786510	3684.525635
1.786590	3652.671875
1.786669	3663.793701
1.786748	3475.740479
1.786828	3533.743896
1.786907	3556.591797
1.786987	3431.102295
1.787066	3567.139893
1.787146	3601.677246
1.787225	3620.597412
1.787304	3647.312988
1.787384	3771.525635
1.787463	3560.332275
1.787543	3680.619385
1.787622	3551.374268
1.787702	3566.385986
1.787781	3721.686523
1.787861	3779.525879
1.787941	3584.120361
1.788020	3622.487549
1.788100	3734.837646
1.788179	3777.061279
1.788259	3686.900879
1.788339	3717.440674
1.788418	3720.726563
1.788498	3766.815918
1.788578	3731.185547
1.788657	3800.598633
1.788737	3718.300781
1.788817	3834.358643
1.788896	3833.733643
1.788976	3805.895996
1.789056	3789.728027
1.789136	3804.655273
1.789215	3726.322510
1.789295	3733.485107
1.789375	3763.951660
1.789455	3813.826660
1.789535	3809.322021
1.789614	3816.466064
1.789694	3850.780762
1.789774	3885.083984
1.789854	3806.839355
1.789934	4035.135498
1.790014	3879.305664
1.790094	3863.158936
1.790174	3726.797852
1.790254	3842.512939
1.790334	3841.886963
1.790413	3903.279297
1.790493	3867.763672
1.790573	3805.135254
1.790653	3878.126221
1.790734	3904.609863
1.790814	3950.449463
1.790894	3775.549805
1.790974	3833.010742
1.791054	3925.292725
1.791134	4052.378662
1.791214	3912.404541
1.791294	3962.066895
1.791374	3833.758545
1.791454	3995.587891
1.791534	4018.140869
1.791615	3905.352539
1.791695	3970.439453
1.791775	3965.927490
1.791855	3973.011230
1.791935	4045.783447
1.792016	3971.717285
1.792096	4141.038574
1.792176	4086.292236
1.792256	4027.702148
1.792337	4015.463379
1.792417	4099.738281
1.792497	3952.399414
1.792578	4090.684814
1.792658	4120.886719
1.792738	3884.885254
1.792819	3984.541504
1.792899	4130.444336
1.792979	4083.500000
1.793060	3978.740234
1.793140	4151.556152
1.793221	4251.086914
1.793301	3980.651123
1.793381	4053.207520
1.793462	4114.183594
1.793542	4090.404053
1.793623	4232.224609
1.793703	4104.474121
1.793784	4319.390625
1.793864	4033.854492
1.793945	4148.651855
1.794026	4259.564453
1.794106	4201.163086
1.794187	4196.632813
1.794267	4030.573242
1.794348	4237.565430
1.794428	4229.186523
1.794509	4109.331543
1.794590	4043.324219
1.794670	4280.922363
1.794751	4184.170410
1.794832	4125.865723
1.794912	4263.469238
1.794993	4162.926758
1.795074	4377.273438
1.795155	4180.767578
1.795235	4295.241699
1.795316	4363.624023
1.795397	4266.983887
1.795478	4220.250488
1.795559	4326.971191
1.795639	4088.475830
1.795720	4294.885742
1.795801	4179.164063
1.795882	4220.652832
1.795963	4127.978027
1.796044	4292.092285
1.796125	4176.445801
1.796205	4313.682129
1.796286	4286.167969
1.796367	4308.449219
1.796448	4330.723145
1.796529	4287.905762
1.796610	4314.003418
1.796691	4386.019531
1.796772	4488.625000
1.796853	4376.941406
1.796934	4590.450684
1.797015	4505.559570
1.797096	4386.278809
1.797177	4435.271484
1.797258	4556.882813
1.797340	4365.028320
1.797421	4364.318848
1.797502	4344.504395
1.797583	4374.361328
1.797664	4419.487305
1.797745	4449.322266
1.797826	4368.409668
1.797908	4501.326660
1.797989	4512.046875
1.798070	4583.830078
1.798151	4605.981445
1.798232	4528.924316
1.798314	4558.706543
1.798395	4508.380859
1.798476	4458.071777
1.798558	4392.526855
1.798639	4696.800293
1.798720	4581.685547
1.798802	4535.207520
1.798883	4439.208496
1.798964	4347.050293
1.799046	4441.575195
1.799127	4517.025879
1.799208	4550.563965
1.799290	4584.090820
1.799371	4511.017578
1.799453	4586.407227
1.799534	4635.134277
1.799616	4706.674316
1.799697	4420.587891
1.799778	4511.157715
1.799860	4692.971680
1.799942	4562.926270
1.800023	4767.483398
1.800105	4641.269043
1.800186	4591.107422
1.800268	4681.561035
1.800349	4688.398926
1.800431	4676.241211
1.800513	4595.721191
1.800594	4796.242188
1.800676	4711.931641
1.800757	4745.333008
1.800839	4824.270508
1.800921	4743.791504
1.801003	4864.442383
1.801084	4624.643066
1.801166	4703.548828
1.801248	4657.273926
1.801329	4724.772949
1.801411	4689.883301
1.801493	4780.099121
1.801575	4730.051758
1.801656	4733.072754
1.801738	4720.937988
1.801820	4769.418457
1.801902	4817.883301
1.801984	4779.230957
1.802066	4892.047363
1.802148	4978.326660
1.802229	4905.599609
1.802311	4776.127930
1.802393	4767.784668
1.802475	4899.427246
1.802557	4796.498535
1.802639	4712.513184
1.802721	4817.630371
1.802803	4745.011230
1.802885	4797.165039
1.802967	4830.402832
1.803049	4874.967285
1.803131	4911.960449
1.803213	4763.828125
1.803295	4861.262207
1.803377	5011.537109
1.803459	5025.827637
1.803541	4851.345215
1.803623	4884.530273
1.803706	4879.963379
1.803788	4762.192383
1.803870	4897.244141
1.803952	4779.508301
1.804034	4891.883301
1.804116	5113.583008
1.804199	4841.279785
1.804281	4923.430664
1.804363	4971.631836
1.804445	4970.825195
1.804528	4962.482910
1.804610	5021.956055
1.804692	4934.504883
1.804775	5031.625000
1.804857	5094.823730
1.804939	4965.988281
1.805022	4912.481445
1.805104	4986.959473
1.805186	5091.518066
1.805269	5000.391602
1.805351	5131.247070
1.805434	5021.336914
1.805516	5039.326172
1.805598	4959.546875
1.805681	4902.350098
1.805763	4957.937988
1.805846	4964.650391
1.805928	5091.604980
1.806011	5045.694336
1.806093	5191.376465
1.806176	5096.639160
1.806258	4889.276367
1.806341	5158.814453
1.806423	5233.057129
1.806506	5273.495605
1.806589	5051.227051
1.806671	4986.621094
1.806754	5195.899414
1.806836	5153.796387
1.806919	5137.959473
1.807002	5253.367676
1.807084	5065.060059
1.807167	5161.700195
1.807250	5262.056152
1.807333	5066.343750
1.807415	5136.709473
1.807498	5398.102051
1.807581	5236.171387
1.807664	5261.536621
1.807746	5414.198242
1.807829	5169.982910
1.807912	5322.609863
1.807995	5411.565430
1.808078	5182.436523
1.808160	5132.960449
1.808243	5244.346680
1.808326	5295.856934
1.808409	5223.949707
1.808492	5353.960938
1.808575	5386.736816
1.808658	5225.146973
1.808741	5201.878418
1.808824	5223.453613
1.808907	5424.338379
1.808990	5221.760254
1.809073	5385.234375
1.809156	5272.343262
1.809239	5237.888672
1.809322	5240.772461
1.809405	5295.905273
1.809488	5339.825195
1.809571	5178.529785
1.809654	5367.937012
1.809737	5303.662109
1.809820	5250.595215
1.809903	5279.572266
1.809987	5398.009766
1.810070	5434.408203
1.810153	5146.571777
1.810236	5369.303711
1.810319	5193.335449
1.810403	5311.690430
1.810486	5273.586914
1.810569	5544.561035
1.810652	5324.001465
1.810735	5464.592773
1.810819	5452.541992
1.810902	5444.215820
1.810985	5569.836426
1.811069	5293.649414
1.811152	5341.145020
1.811235	5444.407715
1.811319	5369.160645
1.811402	5446.361816
1.811486	5553.273926
1.811569	5377.701172
1.811652	5573.770020
1.811736	5491.131836
1.811819	5482.812988
1.811903	5556.205566
1.811986	5436.475586
1.812070	5565.544434
1.812153	5653.736816
1.812237	5496.932617
1.812320	5581.395996
1.812404	5458.047852
1.812487	5523.940918
1.812571	5526.755371
1.812654	5522.151855
1.812738	5421.140625
1.812822	5464.751953
1.812905	5441.625977
1.812989	5518.575684
1.813072	5632.556641
1.813156	5627.939453
1.813240	5423.284668
1.813323	5544.632813
1.813407	5632.612793
1.813491	5550.242676
1.813575	5408.666992
1.813658	5677.995605
1.813742	5480.932129
1.813826	5653.956055
1.813910	5560.549805
1.813993	5637.329102
1.814077	5503.272949
1.814161	5798.208984
1.814245	5542.160645
1.814329	5652.162598
1.814413	5658.639648
1.814497	5642.941895
1.814580	5653.113281
1.814664	5663.280762
1.814748	5754.705078
1.814832	5598.665527
1.814916	5701.147949
1.815000	5500.865234
1.815084	5581.182129
1.815168	5620.876465
1.815252	5708.527832
1.815336	5726.051270
1.815420	5669.791504
1.815504	5521.343262
1.815588	5656.893555
1.815672	5711.284180
1.815756	5717.732910
1.815840	5510.397949
1.815925	5575.841309
1.816009	5784.966309
1.816093	5732.453125
1.816177	5731.525391
1.816261	5690.085938
1.816345	5714.941406
1.816429	5621.973633
1.816514	5691.005371
1.816598	5936.679199
1.816682	5740.682617
1.816766	5666.167480
1.816851	5650.535645
1.816935	5759.965332
1.817019	5777.421387
1.817104	5787.517578
1.817188	5709.377441
1.817272	5715.805664
1.817356	5814.110352
1.817441	5772.749512
1.817525	5790.185059
1.817610	5745.167969
1.817694	5689.146973
1.817778	5776.358887
1.817863	5698.321289
1.817947	5847.910645
1.818032	5722.170410
1.818116	5857.028320
1.818201	5624.919922
1.818285	5825.784668
1.818370	5824.842285
1.818454	5779.890625
1.818539	5679.950684
1.818623	5928.337891
1.818708	5872.394043
1.818792	5783.482422
1.818877	5687.270508
1.818961	5891.528320
1.819046	5956.514648
1.819131	5761.428223
1.819215	5731.199707
1.819300	5949.963867
1.819385	5996.593750
1.819469	5776.003906
1.819554	5756.770996
1.819639	5916.842773
1.819723	5978.081543
1.819808	5794.216797
1.819893	5800.594238
1.819978	5898.389648
1.820063	5795.062500
1.820147	5874.548828
1.820232	5877.253906
1.820317	5755.707520
1.820402	5981.314453
1.820487	5929.202148
1.820571	6056.085938
1.820656	5978.413574
1.820741	5940.932617
1.820826	5826.794922
1.820911	5866.005859
1.820996	6011.045410
1.821081	6064.810059
1.821166	6012.750488
1.821251	5829.382324
1.821336	5934.212402
1.821421	6101.003418
1.821506	6038.032715
1.821591	5862.069336
1.821676	5970.471191
1.821761	5995.016602
1.821846	5833.720703
1.821931	5898.355469
1.822016	6123.244629
1.822101	6158.674805
1.822186	5880.930176
1.822272	5971.000977
1.822357	5962.755371
1.822442	5972.710449
1.822527	5913.519531
1.822612	5938.033691
1.822697	6013.470215
1.822783	6030.684570
1.822868	5946.064941
1.822953	6137.820313
1.823038	6078.659180
1.823124	6324.854980
1.823209	6232.973145
1.823294	5846.783203
1.823380	6005.699707
1.823465	6022.892578
1.823550	5923.854492
1.823636	5970.105957
1.823721	6034.496582
1.823806	6135.169434
1.823892	5996.250000
1.823977	6075.121094
1.824063	6041.482910
1.824148	6076.786133
1.824233	6184.624512
1.824319	6067.569336
1.824404	5943.298828
1.824490	6040.229492
1.824575	6097.253906
1.824661	6114.390625
1.824746	5961.202148
1.824832	6039.950195
1.824918	5984.634766
1.825003	6088.708008
1.825089	6029.780762
1.825174	6224.335449
1.825260	6292.115723
1.825346	6037.718262
1.825431	6054.838379
1.825517	6213.077148
1.825603	6013.084473
1.825688	6051.904785
1.825774	6076.244629
1.825860	6100.577148
1.825945	6038.125488
1.826031	6210.673340
1.826117	6177.139648
1.826203	6013.517090
1.826288	6128.171387
1.826374	5979.060059
1.826460	6147.865234
1.826546	6006.021484
1.826632	6181.989258
1.826717	6137.666016
1.826803	6281.066895
1.826889	6218.695801
1.826975	6232.125977
1.827061	6086.797363
1.827147	6168.786133
1.827233	6171.396973
1.827319	6242.526367
1.827405	6111.712402
1.827491	6053.042969
1.827577	6059.274414
1.827663	6206.059570
1.827749	6122.179199
1.827835	6110.382324
1.827921	6239.076172
1.828007	6115.612305
1.828093	6172.242188
1.828179	6185.647461
1.828265	6101.850586
1.828351	6162.054199
1.828438	6121.472656
1.828524	6008.941406
1.828610	6137.484375
1.828696	6183.254395
1.828782	6117.520508
1.828868	6073.382813
1.828955	6011.282715
1.829041	6139.720703
1.829127	6109.977051
1.829213	6295.853516
1.829300	6133.154785
1.829386	6193.234863
1.829472	6285.621582
1.829558	6076.316895
1.829645	6150.739258
1.829731	6178.466797
1.829818	6202.595703
1.829904	6183.649902
1.829990	6164.710449
1.830077	6224.706543
1.830163	6130.436035
1.830250	6290.841797
1.830336	6074.666992
1.830422	6134.638672
1.830509	6223.269531
1.830595	6207.927734
1.830682	6278.599609
1.830768	6130.679199
1.830855	6255.077637
1.830941	6357.944336
1.831028	6138.455078
1.831115	6377.376953
1.831201	6218.818848
1.831288	6189.178223
1.831374	6213.232422
1.831461	6122.768066
1.831547	6150.403320
1.831634	6271.039551
1.831721	6087.613770
1.831807	6297.625000
1.831894	6289.457520
1.831981	6127.566895
1.832068	6287.427734
1.832154	6154.180664
1.832241	6367.584473
1.832328	6273.666504
1.832415	6340.524414
1.832501	6171.638672
1.832588	6192.068848
1.832675	6201.780762
1.832762	6393.550293
1.832849	6335.411133
1.832936	6245.171875
1.833022	6333.366699
1.833109	6239.589355
1.833196	6363.425781
1.833283	6105.620605
1.833370	6496.872559
1.833457	6313.998535
1.833544	6252.380859
1.833631	6265.628418
1.833718	6221.855469
1.833805	6334.865234
1.833892	6301.782227
1.833979	6233.091797
1.834066	6417.268555
1.834153	6209.717285
1.834240	6354.677246
1.834327	6410.603516
1.834414	6131.975586
1.834501	6323.136230
1.834589	6307.885254
1.834676	6385.125488
1.834763	6256.057617
1.834850	6294.165039
1.834937	6275.372559
1.835024	6281.469727
1.835111	6212.924805
1.835199	6222.583984
1.835286	6356.600586
1.835373	6202.813965
1.835461	6070.389160
1.835548	6307.356445
1.835635	6306.338867
1.835722	6447.333496
1.835810	6283.006836
1.835897	6303.288086
1.835984	6259.688965
1.836072	6372.215332
1.836159	6222.195313
1.836246	6189.270508
1.836334	6206.003418
1.836421	6244.005371
1.836509	6324.537109
1.836596	6263.259277
1.836684	6152.385254
1.836771	6268.326172
1.836859	6391.315430
1.836946	6280.474121
1.837034	6254.668945
1.837121	6320.942383
1.837209	6231.408691
1.837296	6308.283691
1.837384	6289.569336
1.837471	6302.710938
1.837559	6269.850098
1.837647	6198.084473
1.837734	6352.719727
1.837822	6249.134766
1.837910	6315.311035
1.837997	6402.678711
1.838085	6355.693359
1.838173	6287.516602
1.838260	6459.655762
1.838348	6380.884766
1.838436	6259.748047
1.838524	6170.437988
1.838611	6381.330566
1.838699	6465.042480
1.838787	6382.803223
1.838875	6321.768555
1.838963	6341.924316
1.839051	6309.144531
1.839138	6477.473145
1.839226	6349.439941
1.839314	6330.782227
1.839402	6368.551270
1.839490	6325.215332
1.839578	6394.699219
1.839666	6379.570313
1.839754	6431.402344
1.839842	6289.426270
1.839930	6246.137207
1.840018	6234.563477
1.840106	6473.040039
1.840194	6239.596191
1.840282	6337.168457
1.840370	6230.544434
1.840458	6447.750000
1.840546	6344.661621
1.840634	6319.010254
1.840722	6571.273926
1.840810	6274.766113
1.840898	6340.571777
1.840987	6402.839844
1.841075	6310.403809
1.841163	6217.997070
1.841251	6410.287598
1.841339	6468.989746
1.841428	6200.937988
1.841516	6329.909180
1.841604	6360.498047
1.841692	6310.311035
1.841781	6295.250000
1.841869	6255.620605
1.841957	6359.908691
1.842046	6348.355957
1.842134	6192.947754
1.842222	6412.965332
1.842311	6383.871094
1.842399	6326.729004
1.842487	6259.086426
1.842576	6244.054199
1.842664	6172.940430
1.842753	6157.926758
1.842841	6444.281250
1.842930	6488.790527
1.843018	6452.713867
1.843107	6406.141113
1.843195	6317.559570
1.843284	6278.025879
1.843372	6322.525391
1.843461	6212.998047
1.843549	6142.002441
1.843638	6326.467773
1.843726	6339.442871
1.843815	6373.401855
1.843904	6232.476074
1.843992	6507.727051
1.844081	6415.773926
1.844170	6288.892090
1.844258	6350.792969
1.844347	6367.242676
1.844436	6306.817383
1.844525	6242.917969
1.844613	6252.391113
1.844702	6415.526367
1.844791	6302.753906
1.844880	6315.703613
1.844968	6325.158203
1.845057	6397.432129
1.845146	6371.974609
1.845235	6461.662598
1.845324	6254.802734
1.845412	6368.895508
1.845501	6353.919922
1.845590	6331.975586
1.845679	6188.020996
1.845768	6225.366699
1.845857	6388.162598
1.845946	6122.309570
1.846035	6330.361328
1.846124	6346.758301
1.846213	6331.804688
1.846302	6358.643066
1.846391	6357.618652
1.846480	6140.762695
1.846569	6275.517090
1.846658	6236.225586
1.846747	6165.631836
1.846836	6415.120605
1.846925	6240.169434
1.847015	6211.341797
1.847104	6335.521973
1.847193	6365.791504
1.847282	6396.051270
1.847371	6388.069824
1.847460	6338.391113
1.847550	6194.917969
1.847639	6329.401367
1.847728	6397.848633
1.847817	6285.689941
1.847907	6298.566406
1.847996	6290.608398
1.848085	6258.355469
1.848175	6233.054199
1.848264	6103.661621
1.848353	6276.148926
1.848442	6351.452637
1.848532	6229.039551
1.848621	6266.181152
1.848711	6358.785645
1.848800	6278.029785
1.848889	6256.222168
1.848979	6393.834473
1.849068	6403.199707
1.849158	6277.450684
1.849247	6227.946289
1.849337	6306.598633
1.849426	6350.598145
1.849516	6321.878418
1.849605	6189.319824
1.849695	6205.628418
1.849785	6339.587402
1.849874	6303.967285
1.849964	6247.602539
1.850053	6284.643066
1.850143	6252.507324
1.850233	6479.707520
1.850322	6399.150391
1.850412	6246.030762
1.850502	6269.216797
1.850591	6440.980469
1.850681	6339.750977
1.850771	6273.097656
1.850861	6306.625488
1.850950	6094.962402
1.851040	6304.594727
1.851130	6345.005371
1.851220	6250.791016
1.851310	6270.490723
1.851399	6214.273926
1.851489	6396.118164
1.851579	6143.286133
1.851669	6218.170410
1.851759	6296.478516
1.851849	6323.046387
1.851939	6239.297363
1.852029	6400.281250
1.852119	6371.682617
1.852208	6305.193359
1.852298	6317.957520
1.852389	6234.276367
1.852479	6233.272461
1.852569	6159.960938
1.852659	6396.514648
1.852749	6230.262207
1.852839	6187.960449
1.852929	6403.749023
1.853019	6254.777344
1.853109	6195.291992
1.853199	6170.219238
1.853289	6196.736328
1.853379	6261.065430
1.853470	6301.310059
1.853560	6159.372559
1.853650	6275.225098
1.853740	6143.645508
1.853830	6314.431152
1.853921	6213.801270
1.854011	6192.194824
1.854101	5998.903320
1.854191	6073.469727
1.854282	6024.434082
1.854372	6164.183105
1.854462	6224.960449
1.854553	6254.837891
1.854643	6174.929199
1.854733	6149.925293
1.854824	6265.535645
1.854914	6171.947754
1.855004	6188.095703
1.855095	6358.487305
1.855185	6408.872070
1.855276	6215.947754
1.855366	6129.294922
1.855457	6104.329590
1.855547	6120.472168
1.855638	6225.644531
1.855728	6228.066406
1.855819	6199.677246
1.855909	6082.304688
1.856000	6050.525391
1.856091	6227.479492
1.856181	6277.794434
1.856272	6133.119141
1.856362	6118.451660
1.856453	6226.890625
1.856544	6188.280273
1.856634	6115.498047
1.856725	6186.288086
1.856816	6069.104980
1.856907	6167.213379
1.856997	6019.324707
1.857088	6288.191406
1.857179	6072.028809
1.857270	6368.116699
1.857360	6090.558594
1.857451	6004.242188
1.857542	6170.507813
1.857633	6128.566406
1.857724	6178.757324
1.857815	5990.144531
1.857905	6057.394043
1.857996	6080.290527
1.858087	6130.456055
1.858178	6293.103516
1.858269	6169.384766
1.858360	6188.839844
1.858451	6092.436523
1.858542	6115.304199
1.858633	6175.633301
1.858724	6198.479980
1.858815	6047.653320
1.858906	6101.154785
1.858997	6015.069824
1.859088	6170.666016
1.859179	6234.330566
1.859270	5988.349121
1.859362	6157.481934
1.859453	6000.027832
1.859544	6124.893066
1.859635	6161.310547
1.859726	6214.714844
1.859817	6098.142090
1.859909	6114.154297
1.860000	6211.715332
1.860091	6081.608887
1.860182	6165.555176
1.860273	6140.788086
1.860365	5857.939453
1.860456	6053.927734
1.860547	6002.031738
1.860639	6113.076660
1.860730	6006.887695
1.860821	5978.775879
1.860913	6181.371582
1.861004	6115.927246
1.861096	5965.715332
1.861187	6164.824219
1.861278	6228.250977
1.861370	5888.258301
1.861461	6134.733887
1.861553	6062.582031
1.861644	6014.170898
1.861736	5921.734863
1.861827	5829.328125
1.861919	6106.093750
1.862010	5871.471680
1.862102	5995.791992
1.862193	6160.691895
1.862285	5892.329102
1.862376	5830.470703
1.862468	5897.200195
1.862560	6133.048340
1.862651	5824.274902
1.862743	5955.225098
1.862835	6011.747559
1.862926	5922.883301
1.863018	5925.310547
1.863110	5785.795898
1.863201	6011.258301
1.863293	5736.635742
1.863385	5806.648926
1.863477	6004.980469
1.863569	5858.810059
1.863660	5935.522461
1.863752	5850.173828
1.863844	5896.485352
1.863936	5939.407715
1.864028	5746.126953
1.864120	5687.852051
1.864212	5906.184082
1.864303	5891.744141
1.864395	5762.662109
1.864487	5953.905273
1.864579	5851.821289
1.864671	5689.104492
1.864763	5752.215332
1.864855	5879.320801
1.864947	5811.000977
1.865039	5786.489258
1.865131	5997.717773
1.865223	5771.159180
1.865315	5810.629395
1.865408	5809.694824
1.865500	5670.776855
1.865592	5881.853516
1.865684	5796.798340
1.865776	5691.587402
1.865868	5737.757813
1.865960	5820.903320
1.866053	5668.667969
1.866145	5889.625488
1.866237	5777.761230
1.866329	5850.764160
1.866421	5705.341797
1.866514	5848.882324
1.866606	5740.454590
1.866698	5621.986816
1.866791	5708.387207
1.866883	5737.685059
1.866975	5810.611816
1.867068	5789.539551
1.867160	5758.406738
1.867252	5821.228516
1.867345	5612.305176
1.867437	5628.172852
1.867530	5798.298828
1.867622	5639.774414
1.867715	5595.285156
1.867807	5711.702637
1.867900	5781.163574
1.867992	5575.831055
1.868085	5581.634766
1.868177	5788.423340
1.868270	5690.364258
1.868362	5602.382813
1.868455	5655.052246
1.868547	5660.837891
1.868640	5606.374023
1.868733	5575.353516
1.868825	5661.452637
1.868918	5493.268555
1.869011	5656.286621
1.869103	5715.576172
1.869196	5557.495605
1.869289	5429.555176
1.869381	5702.790527
1.869474	5758.691406
1.869567	5507.136719
1.869660	5750.156738
1.869752	5585.540527
1.869845	5544.561035
1.869938	5570.385742
1.870031	5659.643555
1.870124	5608.656250
1.870216	5621.105957
1.870309	5656.913086
1.870402	5429.095703
1.870495	5498.285645
1.870588	5517.416016
1.870681	5439.817871
1.870774	5518.976074
1.870867	5531.425293
1.870960	5637.212891
1.871053	5399.654785
1.871146	5648.729980
1.871239	5554.523926
1.871332	5433.696289
1.871425	5476.125000
1.871518	5372.000488
1.871611	5324.518066
1.871704	5406.895996
1.871797	5316.147949
1.871891	5578.228516
1.871984	5417.598633
1.872077	5420.054688
1.872170	5452.449707
1.872263	5481.508301
1.872356	5430.742188
1.872450	5379.992676
1.872543	5438.969238
1.872636	5348.346191
1.872729	5300.957031
1.872823	5469.575195
1.872916	5355.733398
1.873009	5444.562988
1.873103	5354.010742
1.873196	5429.528320
1.873289	5309.125000
1.873383	5517.415527
1.873476	5237.714355
1.873569	5333.113770
1.873663	5342.210449
1.873756	5271.681152
1.873850	5287.418945
1.873943	5289.885254
1.874037	5216.082031
1.874130	5354.493164
1.874224	5214.404785
1.874317	5279.854492
1.874411	5308.830078
1.874504	5264.902832
1.874598	5167.984375
1.874691	5302.957031
1.874785	5318.662598
1.874879	5274.761719
1.874972	5336.816406
1.875066	5220.103027
1.875160	5282.145996
1.875253	5115.842285
1.875347	5204.350586
1.875441	5071.192871
1.875534	5110.067383
1.875628	5264.672363
1.875722	5240.680664
1.875816	5269.590820
1.875909	5202.636230
1.876003	5026.644043
1.876097	5181.137207
1.876191	5061.368652
1.876285	5212.503418
1.876378	5115.886719
1.876472	5144.783691
1.876566	5005.287598
1.876660	5136.526855
1.876754	5023.481445
1.876848	5039.173828
1.876942	5074.658203
1.877036	5083.738770
1.877130	5102.711914
1.877224	5210.723145
1.877318	5190.100586
1.877412	5156.297363
1.877506	5023.614746
1.877600	5111.793945
1.877694	5134.038574
1.877788	5070.612793
1.877882	4980.853516
1.877976	4986.640137
1.878070	4962.786133
1.878165	5004.791992
1.878259	5023.739746
1.878353	5003.182617
1.878447	5002.377930
1.878541	4932.473145
1.878635	4941.549805
1.878730	4911.149902
1.878824	5018.894531
1.878918	4975.338379
1.879012	4994.265625
1.879107	4914.566406
1.879201	5035.387695
1.879295	4801.252441
1.879390	4931.910156
1.879484	4868.698242
1.879578	4881.053711
1.879673	5008.351563
1.879767	4928.738770
1.879862	4757.224609
1.879956	4881.197754
1.880050	4949.335938
1.880145	4836.968262
1.880239	4954.306152
1.880334	4999.436035
1.880428	4739.516602
1.880523	4902.725098
1.880617	4901.937012
1.880712	4894.591797
1.880807	4828.248047
1.880901	4801.253418
1.880996	4931.552246
1.881090	4871.786621
1.881185	4766.180176
1.881280	4775.239258
1.881374	4777.746094
1.881469	4678.753418
1.881564	4933.343262
1.881658	4765.622559
1.881753	4833.580078
1.881848	4751.001465
1.881943	4756.780762
1.882037	4746.202637
1.882132	4686.571289
1.882227	4669.467773
1.882322	4658.908691
1.882416	4694.117188
1.882511	4784.876465
1.882606	4774.303711
1.882701	4655.913086
1.882796	4743.367188
1.882891	4749.137207
1.882986	4634.072754
1.883081	4701.896973
1.883176	4727.258301
1.883271	4631.837402
1.883365	4738.792480
1.883461	4620.558594
1.883555	4658.966797
1.883650	4599.500488
1.883746	4605.284180
1.883841	4699.112793
1.883936	4698.356934
1.884031	4655.222168
1.884126	4595.803711
1.884221	4656.983887
1.884316	4486.798828
1.884411	4544.718750
1.884506	4648.223145
1.884602	4452.066406
1.884697	4666.265625
1.884792	4492.959961
1.884887	4466.195313
1.884982	4618.449219
1.885078	4650.248535
1.885173	4480.309570
1.885268	4525.133301
1.885363	4498.384277
1.885459	4413.106445
1.885554	4435.157715
1.885649	4535.227539
1.885745	4469.487305
1.885840	4381.018066
1.885936	4435.555176
1.886031	4564.800781
1.886126	4531.582031
1.886222	4417.176270
1.886317	4439.197754
1.886413	4334.583496
1.886508	4505.943359
1.886604	4362.402344
1.886699	4400.644531
1.886795	4721.170898
1.886890	4318.122559
1.886986	4395.277832
1.887082	4277.814941
1.887177	4429.534180
1.887273	4419.095215
1.887368	4298.443359
1.887464	4524.631836
1.887560	4446.129395
1.887655	4578.258301
1.887751	4392.866211
1.887847	4333.856934
1.887942	4323.444336
1.888038	4316.272949
1.888134	4237.879395
1.888230	4292.226074
1.888325	4129.713379
1.888421	4374.979980
1.888517	4296.626465
1.888613	4156.835449
1.888709	4240.260742
1.888804	4249.280273
1.888900	4235.663574
1.888996	4247.913574
1.889092	4211.675293
1.889188	4172.216797
1.889284	4239.402344
1.889380	4132.106445
1.889476	4309.103516
1.889572	4156.614746
1.889668	4217.300781
1.889764	4164.964355
1.889860	4190.119629
1.889956	4189.445801
1.890052	4108.094727
1.890148	4155.832520
1.890244	4080.964844
1.890340	4164.172852
1.890436	4118.352539
1.890532	4062.873779
1.890628	3965.500977
1.890725	3945.522461
1.890821	3977.117432
1.890917	4176.268555
1.891013	4191.706543
1.891109	4149.154297
1.891206	3952.013428
1.891302	3954.598389
1.891398	4085.975830
1.891495	4004.835693
1.891591	4103.974609
1.891687	4100.096191
1.891783	3967.508301
1.891880	4002.260010
1.891976	4094.901611
1.892072	3836.945801
1.892169	4042.133545
1.892265	3954.673584
1.892362	3941.178955
1.892458	3850.548828
1.892555	4020.252197
1.892651	4064.589111
1.892748	3909.730713
1.892844	3934.798584
1.892941	4004.820313
1.893037	3962.432617
1.893134	4022.795410
1.893230	3951.528076
1.893327	4027.920654
1.893423	3857.196777
1.893520	3898.286377
1.893616	3817.460693
1.893713	4028.537598
1.893810	3992.613525
1.893906	3998.384277
1.894003	3827.829102
1.894100	3897.731689
1.894197	3842.622314
1.894293	3858.025879
1.894390	3921.481934
1.894487	4026.560547
1.894584	3836.947998
1.894680	3775.487793
1.894777	3883.740479
1.894874	3831.895752
1.894971	3792.870850
1.895068	3731.456543
1.895165	3871.643555
1.895262	3736.654785
1.895358	3736.053711
1.895455	3793.019775
1.895552	3821.188721
1.895649	3849.348145
1.895746	3957.414063
1.895843	3803.364746
1.895940	3646.168945
1.896037	3731.849609
1.896134	3817.502686
1.896231	3982.979248
1.896328	3742.823486
1.896425	3716.677246
1.896523	3722.464600
1.896620	3741.017822
1.896717	3756.373535
1.896814	3755.769287
1.896911	3767.927002
1.897008	3741.801514
1.897105	3776.283447
1.897203	3689.575195
1.897300	3755.938232
1.897397	3678.824707
1.897494	3668.670898
1.897591	3798.742432
1.897689	3814.062988
1.897786	3650.971924
1.897883	3663.125977
1.897981	3547.883301
1.898078	3681.053467
1.898175	3690.012695
1.898273	3689.419189
1.898370	3561.515137
1.898468	3605.493896
1.898565	3579.459961
1.898662	3550.253174
1.898760	3594.212158
1.898857	3552.291260
1.898955	3736.142334
1.899052	3567.044434
1.899150	3715.868408
1.899247	3648.529297
1.899345	3555.790527
1.899442	3418.601563
1.899540	3592.766357
1.899638	3677.943604
1.899735	3607.488525
1.899833	3600.558105
1.899930	3396.805420
1.900028	3526.396240
1.900126	3608.341553
1.900223	3496.704346
1.900321	3632.561035
1.900419	3511.439697
1.900517	3552.104492
1.900614	3526.165039
1.900712	3474.869873
1.900810	3509.180664
1.900908	3467.413086
1.901006	3530.234619
1.901103	3529.666748
1.901201	3617.801514
1.901299	3449.345215
1.901397	3429.788818
1.901495	3438.736328
1.901593	3438.183105
1.901691	3462.953125
1.901789	3465.561035
1.901887	3360.578857
1.901984	3458.118408
1.902083	3454.398682
1.902181	3501.285889
1.902279	3301.494629
1.902377	3357.876709
1.902475	3237.205811
1.902573	3495.872559
1.902671	3321.492920
1.902769	3399.953613
1.902867	3443.636963
1.902965	3392.542236
1.903063	3423.579346
1.903161	3413.555176
1.903260	3362.489746
1.903358	3343.008301
1.903456	3358.251709
1.903554	3395.580322
1.903653	3309.842773
1.903751	3334.548096
1.903849	3340.320068
1.903947	3324.014160
1.904045	3399.156250
1.904144	3401.761963
1.904242	3262.518311
1.904341	3325.027100
1.904439	3365.457520
1.904537	3364.916016
1.904636	3354.924072
1.904734	3237.847168
1.904832	3309.756592
1.904931	3293.480957
1.905029	3302.395508
1.905128	3289.273682
1.905226	3250.979004
1.905325	3285.068604
1.905423	3413.530762
1.905522	3277.720459
1.905620	3289.773438
1.905719	3144.592773
1.905818	3235.265381
1.905916	3193.878418
1.906015	3212.222900
1.906114	3239.989258
1.906212	3176.626709
1.906311	3176.115479
1.906410	3266.695068
1.906508	3159.390869
1.906607	3259.363770
1.906706	3152.094971
1.906804	3135.892822
1.906903	3182.466064
1.907002	3272.956543
1.907101	3162.616943
1.907200	3168.382080
1.907298	3161.599121
1.907397	3117.186523
1.907496	3238.969238
1.907595	3247.853027
1.907694	3190.909668
1.907793	3202.932129
1.907892	3127.213135
1.907991	3132.976074
1.908090	3098.014648
1.908188	3100.648193
1.908288	3140.858154
1.908386	3165.400391
1.908486	3136.717041
1.908584	3073.613281
1.908684	3073.118652
1.908783	3107.042480
1.908882	3040.845215
1.908981	2974.669189
1.909080	3052.376221
1.909179	2923.680908
1.909278	3048.267578
1.909377	3141.554688
1.909477	3134.798340
1.909576	3040.546387
1.909675	3093.172119
1.909774	3023.948242
1.909873	3020.338135
1.909973	3104.170654
1.910072	2985.019775
1.910171	2906.491699
1.910271	3096.429443
1.910370	2943.007080
1.910469	2964.376221
1.910568	3063.735596
1.910668	3041.406982
1.910767	3031.560791
1.910867	2909.455811
1.910966	2993.170410
1.911065	2995.806152
1.911165	2970.388916
1.911264	2929.397949
1.911364	3047.329834
1.911463	3028.146973
1.911563	2968.477051
1.911662	3105.031738
1.911762	3020.457520
1.911862	2995.064453
1.911961	3000.808105
1.912061	2894.504395
1.912160	2953.164063
1.912260	2899.795654
1.912359	2914.883057
1.912459	2870.868896
1.912559	3007.240967
1.912659	3016.084961
1.912758	2968.966553
1.912858	2956.055176
1.912958	2921.392822
1.913057	2840.131104
1.913157	2911.131836
1.913257	2954.152344
1.913357	2978.523926
1.913457	2875.567383
1.913556	2831.636475
1.913656	2815.658691
1.913756	2908.321533
1.913856	2839.579346
1.913956	2839.122314
1.914056	3021.704834
1.914156	2909.551270
1.914256	2955.603271
1.914356	2765.974609
1.914456	2799.633545
1.914556	3022.373535
1.914656	2975.396240
1.914756	2900.544434
1.914856	2807.126221
1.914956	2853.142578
1.915056	2911.533447
1.915156	2861.514648
1.915256	2836.282959
1.915356	2835.826416
1.915456	2838.465332
1.915557	2903.000732
1.915657	2698.303955
1.915757	2790.686279
1.915857	2839.731201
1.915957	2833.088379
1.916057	2854.279053
1.916158	2912.565430
1.916258	2874.999756
1.916358	2778.718994
1.916458	2846.260498
1.916559	2777.824463
1.916659	2749.572510
1.916759	2761.485352
1.916860	2788.836426
1.916960	2785.299561
1.917061	2812.637939
1.917161	2784.402832
1.917262	2817.905273
1.917362	2817.451416
1.917462	2662.726318
1.917563	2785.695068
1.917663	2745.148682
1.917764	2753.958496
1.917864	2756.598633
1.917965	2836.311279
1.918066	2783.453125
1.918166	2835.398193
1.918267	2844.186035
1.918367	2754.380127
1.918468	2713.890625
1.918569	2744.253174
1.918669	2903.944092
1.918770	2654.079102
1.918871	2816.811279
1.918971	2730.174072
1.919072	2689.727051
1.919173	2772.372803
1.919273	2605.795410
1.919374	2731.492188
1.919475	2783.335938
1.919576	2767.512695
1.919677	2770.141357
1.919777	2714.363037
1.919878	2809.205322
1.919979	2682.758545
1.920080	2688.471436
1.920181	2737.191406
1.920282	2733.678955
1.920383	2810.015137
1.920484	2588.482178
1.920585	2717.008057
1.920686	2587.648682
1.920787	2654.751465
1.920888	2694.215576
1.920989	2709.122070
1.921090	2668.807129
1.921191	2680.645752
1.921292	2704.746826
1.921393	2670.583984
1.921494	2679.350830
1.921595	2688.114502
1.921696	2601.872070
1.921798	2684.184570
1.921899	2741.961670
1.922000	2677.193848
1.922101	2548.130859
1.922202	2673.269287
1.922304	2712.640381
1.922405	2626.490479
1.922506	2635.249512
1.922607	2662.366943
1.922709	2612.982910
1.922810	2548.318604
1.922911	2633.552246
1.923013	2755.456787
1.923114	2660.223389
1.923216	2583.364014
1.923317	2696.047363
1.923418	2610.038086
1.923520	2521.000732
1.923621	2609.197266
1.923723	2569.064941
1.923824	2684.713867
1.923926	2684.281250
1.924027	2589.196777
1.924129	2542.987549
1.924230	2692.141357
1.924332	2554.375488
1.924433	2544.810059
1.924535	2696.942139
1.924637	2669.054443
1.924738	2595.427979
1.924840	2555.368164
1.924942	2515.321045
1.925043	2539.302979
1.925145	2599.851807
1.925247	2593.338135
1.925348	2580.732666
1.925450	2662.570068
1.925552	2433.696533
1.925654	2573.394531
1.925756	2612.564453
1.925857	2517.765381
1.925959	2620.854492
1.926061	2507.823730
1.926163	2434.387939
1.926265	2510.058105
1.926367	2543.115723
1.926468	2588.328613
1.926570	2496.680908
1.926672	2499.319336
1.926774	2535.396973
1.926876	2559.304932
1.926978	2552.814453
1.927080	2439.975830
1.927182	2524.649170
1.927284	2499.941650
1.927386	2505.613037
1.927488	2468.769775
1.927591	2504.805664
1.927693	2534.758301
1.927795	2464.541504
1.927897	2464.144287
1.927999	2527.464844
1.928101	2460.316650
1.928203	2462.953369
1.928306	2474.687256
1.928408	2462.159424
1.928510	2598.190430
1.928612	2521.990967
1.928715	2539.769043
1.928817	2457.542480
1.928919	2457.146484
1.929022	2462.809082
1.929124	2550.247314
1.929226	2525.609863
1.929329	2585.759277
1.929431	2549.014648
1.929533	2491.093750
1.929636	2505.823975
1.929738	2490.290771
1.929841	2477.787842
1.929943	2456.214355
1.930046	2404.403564
1.930148	2482.637939
1.930251	2409.675537
1.930353	2463.699951
1.930456	2357.516846
1.930558	2468.949951
1.930661	2474.594971
1.930764	2410.755127
1.930866	2458.694580
1.930969	2524.739014
1.931072	2385.433350
1.931174	2451.467773
1.931277	2472.202637
1.931380	2601.581543
1.931482	2462.353027
1.931585	2452.904785
1.931688	2458.542480
1.931791	2479.259277
1.931893	2409.499756
1.931996	2559.869141
1.932099	2544.383301
1.932202	2414.363037
1.932305	2453.151855
1.932407	2449.743164
1.932510	2500.564697
1.932613	2340.512695
1.932716	2388.323486
1.932819	2363.848389
1.932922	2375.510498
1.933025	2381.148193
1.933128	2431.931152
1.933231	2401.445801
1.933334	2416.102783
1.933437	2448.805176
1.933540	2370.205566
1.933643	2402.904785
1.933746	2420.558838
1.933849	2456.245605
1.933953	2425.790283
1.934056	2476.491699
1.934159	2283.774658
1.934262	2331.478027
1.934365	2406.202148
1.934468	2285.673584
1.934572	2447.468750
1.934675	2492.112305
1.934778	2323.594971
1.934881	2443.283447
1.934985	2382.867676
1.935088	2391.485107
1.935191	2460.102295
1.935295	2321.722168
1.935398	2375.332764
1.935501	2356.957520
1.935605	2440.526855
1.935708	2305.236572
1.935812	2427.750977
1.935915	2517.261719
1.936018	2307.117676
1.936122	2336.703369
1.936225	2357.293701
1.936329	2419.804443
1.936432	2314.612793
1.936536	2463.931641
1.936639	2496.461182
1.936743	2310.500244
1.936847	2405.884277
1.936950	2348.649902
1.937054	2309.382568
1.937157	2407.711426
1.937261	2371.437500
1.937365	2397.964844
1.937468	2400.567627
1.937572	2361.323242
1.937676	2474.506592
1.937779	2297.812256
1.937883	2348.230469
1.937987	2398.632080
1.938091	2317.606934
1.938195	2376.955566
1.938298	2507.940430
1.938402	2385.144287
1.938506	2414.606445
1.938610	2414.217041
1.938714	2273.592773
1.938818	2496.968750
1.938922	2410.066162
1.939026	2275.474854
1.939130	2352.634521
1.939234	2346.292480
1.939337	2354.856445
1.939442	2336.594482
1.939546	2401.774658
1.939650	2446.077881
1.939754	2436.746582
1.939858	2335.086914
1.939962	2373.423584
1.940066	2393.882813
1.940170	2316.094971
1.940274	2330.604004
1.940378	2327.251953
1.940482	2395.313965
1.940587	2332.451172
1.940691	2329.100342
1.940795	2304.931641
1.940899	2304.559814
1.941004	2354.731445
1.941108	2357.324219
1.941212	2348.027100
1.941316	2392.223877
1.941421	2287.844971
1.941525	2323.124756
1.941629	2432.649902
1.941734	2399.589600
1.941838	2434.834229
1.941943	2336.469971
1.942047	2255.947266
1.942152	2309.005127
1.942256	2302.697754
1.942360	2418.035889
1.942465	2230.760010
1.942569	2366.834229
1.942674	2310.108154
1.942778	2288.980225
1.942883	2300.468994
1.942988	2297.133789
1.943092	2317.508057
1.943197	2314.170898
1.943301	2251.582520
1.943406	2343.045166
1.943511	2336.743896
1.943616	2309.716064
1.943720	2383.360840
1.943825	2397.777100
1.943930	2364.833008
1.944034	2305.266113
1.944139	2298.976318
1.944244	2366.646484
1.944349	2283.445313
1.944453	2297.863525
1.944558	2380.284912
1.944663	2335.554932
1.944768	2293.794922
1.944873	2252.048584
1.944978	2307.829346
1.945083	2286.775391
1.945188	2286.406250
1.945293	2265.362305
1.945397	2386.072266
1.945503	2347.303467
1.945608	2352.828613
1.945712	2379.013672
1.945818	2304.850586
1.945922	2333.985352
1.946028	2383.761963
1.946133	2297.835205
1.946238	2270.920898
1.946343	2323.632324
1.946448	2335.050293
1.946553	2364.151367
1.946658	2316.612305
1.946764	2289.716553
1.946869	2268.721924
1.946974	2147.573242
1.947079	2338.680176
1.947184	2314.742676
1.947290	2305.535645
1.947395	2334.603516
1.947500	2213.541504
1.947606	2254.386963
1.947711	2345.243164
1.947816	2280.137939
1.947922	2320.952637
1.948027	2308.813232
1.948133	2340.788086
1.948238	2287.486084
1.948343	2319.453857
1.948449	2313.200928
1.948554	2295.194580
1.948660	2341.836914
1.948765	2256.261475
1.948871	2294.082764
1.948976	2378.882080
1.949082	2322.706055
1.949187	2342.882568
1.949293	2365.988037
1.949399	2248.206055
1.949504	2338.812988
1.949610	2197.601074
1.949716	2299.921143
1.949821	2208.623779
1.949927	2328.504639
1.950033	2290.010498
1.950138	2272.050537
1.950244	2227.715576
1.950350	2262.524658
1.950456	2297.322266
1.950562	2217.846924
1.950667	2290.721436
1.950773	2296.209229
1.950879	2354.405518
1.950985	2283.755859
1.951091	2262.895020
1.951197	2291.798828
1.951303	2259.237549
1.951409	2270.576416
1.951514	2305.316162
1.951620	2304.943604
1.951726	2357.213867
1.951832	2266.185547
1.951939	2324.292236
1.952044	2195.297363
1.952150	2241.705811
1.952257	2355.310303
1.952363	2240.981689
1.952469	2299.045166
1.952575	2333.723389
1.952681	2234.054932
1.952787	2379.687012
1.952893	2306.317871
1.953000	2247.566895
1.953106	2229.693115
1.953212	2261.430420
1.953318	2298.992676
1.953424	2286.952881
1.953531	2356.580811
1.953637	2268.717529
1.953743	2212.954102
1.953850	2250.493408
1.953956	2229.727051
1.954062	2293.479248
1.954169	2263.971191
1.954275	2243.212646
1.954382	2318.582764
1.954488	2347.331299
1.954594	2178.064453
1.954701	2227.206055
1.954807	2311.262451
1.954914	2331.261963
1.955020	2258.135986
1.955127	2295.594482
1.955234	2260.315186
1.955340	2233.772949
1.955447	2172.342041
1.955553	2215.605225
1.955660	2183.268311
1.955767	2307.902588
1.955873	2170.937744
1.955980	2249.041992
1.956087	2298.067871
1.956193	2257.029297
1.956300	2291.516357
1.956407	2238.876465
1.956514	2194.963867
1.956620	2241.055664
1.956727	2205.864014
1.956834	2272.253174
1.956941	2266.082764
1.957048	2207.695557
1.957154	2181.233398
1.957261	2221.482178
1.957368	2287.814941
1.957475	2304.840088
1.957582	2266.784180
1.957689	2292.501953
1.957796	2263.153564
1.957903	2283.068848
1.958010	2265.318604
1.958117	2293.916016
1.958224	2235.627441
1.958331	2290.278809
1.958438	2191.480225
1.958545	2222.965088
1.958652	2375.988770
1.958759	2277.223877
1.958867	2242.138672
1.958974	2215.742676
1.959081	2200.923584
1.959188	2258.401123
1.959295	2237.797607
1.959403	2338.611816
1.959510	2202.390625
1.959617	2222.263184
1.959724	2242.129150
1.959832	2207.100098
1.959939	2226.961914
1.960046	2197.722412
1.960154	2234.904053
1.960261	2171.028564
1.960368	2199.542725
1.960476	2279.997070
1.960583	2167.089844
1.960690	2276.374512
1.960798	2238.505615
1.960905	2281.406738
1.961013	2278.153809
1.961120	2185.520752
1.961228	2182.284424
1.961336	2262.636963
1.961443	2227.688477
1.961551	2227.328125
1.961658	2293.229492
1.961766	2284.217041
1.961874	2304.007813
1.961981	2188.453369
1.962089	2257.197021
1.962197	2225.167236
1.962304	2233.441650
1.962412	2264.734863
1.962520	2195.315430
1.962627	2200.713623
1.962735	2272.264893
1.962843	2133.857910
1.962951	2320.410645
1.963058	2207.914551
1.963166	2259.296875
1.963274	2235.939697
1.963382	2195.349121
1.963490	2180.628662
1.963598	2269.325439
1.963706	2200.027832
1.963814	2231.259766
1.963922	2190.702393
1.964030	2233.408447
1.964138	2247.398438
1.964246	2287.211670
1.964354	2229.455322
1.964462	2160.242188
1.964570	2271.759521
1.964678	2202.561768
1.964786	2222.277588
1.964894	2230.518799
1.965002	2192.893066
1.965110	2218.332764
1.965219	2289.613770
1.965327	2220.479980
1.965435	2191.473877
1.965543	2265.588623
1.965651	2339.679199
1.965760	2273.445068
1.965868	2201.506836
1.965976	2209.737549
1.966084	2272.341309
1.966193	2220.468018
1.966301	2228.691406
1.966410	2142.515625
1.966518	2285.170654
1.966626	2133.243408
1.966735	2215.812256
1.966843	2304.071777
1.966952	2209.378662
1.967060	2209.020996
1.967169	2217.235107
1.967277	2234.017090
1.967386	2136.540039
1.967494	2210.446777
1.967603	2281.474121
1.967711	2184.036621
1.967820	2263.608643
1.967928	2100.562744
1.968037	2185.829590
1.968146	2191.181885
1.968254	2293.522217
1.968363	2201.881104
1.968472	2104.566162
1.968580	2263.895752
1.968689	2280.633789
1.968798	2200.455322
1.968907	2114.603027
1.969015	2159.851074
1.969124	2179.444092
1.969233	2213.272949
1.969342	2192.978271
1.969451	2149.909668
1.969560	2146.714600
1.969669	2157.753418
1.969777	2257.020264
1.969886	2162.746094
1.969995	2247.753418
1.970104	2241.699951
1.970213	2210.049072
1.970322	2255.193359
1.970431	2232.080566
1.970540	2206.132568
1.970649	2191.562744
1.970758	2199.733887
1.970868	2136.863037
1.970977	2110.947021
1.971086	2252.637695
1.971195	2181.268066
1.971304	2226.350342
1.971413	2234.507568
1.971522	2214.273926
1.971632	2290.550781
1.971741	2213.556641
1.971850	2210.360596
1.971959	2161.773926
1.972068	2269.211182
1.972178	2192.270264
1.972287	2208.928711
1.972396	2265.273438
1.972506	2174.196777
1.972615	2094.486572
1.972724	2210.331299
1.972834	2190.140137
1.972943	2209.614990
1.973053	2163.938965
1.973162	2140.933105
1.973272	2106.608643
1.973381	2324.254639
1.973491	2162.536865
1.973600	2210.297852
1.973710	2192.961914
1.973819	2110.560791
1.973929	2217.709717
1.974039	2282.400146
1.974148	2228.302246
1.974258	2160.085205
1.974367	2227.580078
1.974477	2198.954834
1.974587	2255.117920
1.974697	2186.940186
1.974806	2121.609863
1.974916	2203.178955
1.975026	2264.952881
1.975135	2179.875488
1.975245	2230.340088
1.975355	2229.978516
1.975465	2175.993408
1.975575	2138.956787
1.975685	2220.430176
1.975794	2222.891357
1.975904	2219.710449
1.976014	2213.710693
1.976124	2250.006104
1.976234	2167.887451
1.976344	2125.256348
1.976454	2234.821045
1.976564	2237.276611
1.976674	2138.309326
1.976784	2191.482178
1.976894	2162.963379
1.977004	2238.642090
1.977114	2162.262207
1.977224	2122.501709
1.977335	2139.044678
1.977445	2310.356689
1.977555	2138.351318
1.977665	2112.686035
1.977775	2177.035645
1.977885	2252.613525
1.977996	2153.835449
1.978106	2184.410889
1.978216	2206.543945
1.978327	2234.290283
1.978437	2141.198975
1.978547	2185.803955
1.978658	2146.122559
1.978768	2179.478027
1.978878	2210.014160
1.978989	2229.309570
1.979099	2184.032227
1.979210	2166.837402
1.979320	2172.098633
1.979430	2250.310791
1.979541	2118.091064
1.979651	2187.871582
1.979762	2167.885254
1.979872	2178.749756
1.979983	2108.306396
1.980094	2141.602295
1.980204	2183.295166
1.980315	2219.370117
1.980425	2168.578125
1.980536	2148.617188
1.980647	2139.865967
1.980757	2173.123779
1.980868	2136.371826
1.980979	2192.015381
1.981090	2158.071045
1.981200	2227.686035
1.981311	2137.783936
1.981422	2168.211670
1.981533	2134.293213
1.981644	2212.256836
1.981754	2248.250244
1.981865	2166.804932
1.981976	2174.839844
1.982087	2269.515869
1.982198	2188.106689
1.982309	2159.811035
1.982420	2148.286133
1.982531	2259.663818
1.982642	2128.040039
1.982753	2138.863770
1.982864	2183.185303
1.982975	2127.004150
1.983086	2056.886719
1.983197	2095.619141
1.983308	2181.768555
1.983419	2139.571533
1.983530	2211.740479
1.983642	2261.576660
1.983753	2155.259033
1.983864	2252.479492
1.983975	2148.985107
1.984086	2067.818604
1.984198	2134.355713
1.984309	2200.871094
1.984420	2133.662842
1.984532	2194.586670
1.984643	2119.047607
1.984754	2096.430664
1.984865	2123.927002
1.984977	2148.630859
1.985088	2234.547363
1.985200	2139.586426
1.985311	2083.602295
1.985422	2111.077881
1.985534	2113.516113
1.985645	2202.148926
1.985757	2171.210938
1.985868	2145.842041
1.985980	2112.144043
1.986091	2131.251953
1.986203	2169.801270
1.986315	2133.337646
1.986426	2102.440674
1.986538	2235.389648
1.986650	2132.298828
1.986761	2079.208984
1.986873	2134.381836
1.986985	2164.561035
1.987096	2086.520020
1.987208	2172.180664
1.987320	2221.755127
1.987432	2188.114990
1.987543	2054.664063
1.987655	2126.412109
1.987767	2087.259766
1.987879	2195.008301
1.987991	2164.170654
1.988103	2197.065918
1.988214	2160.697510
1.988326	2099.413818
1.988438	2099.072754
1.988550	2126.419434
1.988662	2200.818848
1.988774	2139.568115
1.988886	2136.453369
1.988998	2177.610840
1.989110	2149.591797
1.989222	2091.155029
1.989334	2143.362305
1.989447	2137.483643
1.989559	2059.724121
1.989671	2092.560791
1.989783	2072.874023
1.989895	2138.858398
1.990007	2061.148926
1.990119	2116.063721
1.990232	2129.530029
1.990344	2148.515137
1.990456	2206.150146
1.990568	2089.842529
1.990681	2180.591064
1.990793	2045.006836
1.990905	2132.973633
1.991018	2124.350342
1.991130	2074.353027
1.991242	2068.500000
1.991355	2145.375244
1.991467	2125.726807
1.991580	2175.001221
1.991692	2163.623047
1.991805	2135.713867
1.991917	2129.855957
1.992030	2107.470947
1.992142	2126.409424
1.992255	2090.262207
1.992367	2180.788574
1.992480	2026.262085
1.992592	2122.274658
1.992705	2011.842651
1.992818	2099.571045
1.992930	2035.950195
1.993043	2151.154297
1.993156	2087.545654
1.993269	2114.705811
1.993381	2045.624634
1.993494	2108.520264
1.993607	2017.473633
1.993720	2121.575439
1.993832	2099.249023
1.993945	2126.380371
1.994058	2065.604736
1.994171	2089.986084
1.994284	2067.678955
1.994397	2039.888062
1.994510	2080.731934
1.994623	1984.333130
1.994736	2066.334717
1.994848	2041.305420
1.994962	1944.959961
1.995075	2048.870117
1.995188	2092.414551
1.995301	2149.654297
1.995414	2036.904785
1.995527	2129.768066
1.995640	2115.718994
1.995753	2052.352051
1.995866	2115.030762
1.995979	2133.861328
1.996092	2125.298096
1.996206	1998.988770
1.996319	2080.800537
1.996432	2107.836426
1.996545	2011.698486
1.996659	2079.785400
1.996772	2084.919189
1.996885	2070.901855
1.996999	2108.858154
1.997112	2051.084717
1.997225	2113.640625
1.997339	2028.546265
1.997452	2022.749390
1.997565	1978.692383
1.997679	2054.882080
1.997792	2013.566040
1.997906	1972.263550
1.998019	1999.254883
1.998133	2026.237427
1.998246	2055.941406
1.998360	1987.359619
1.998473	2022.519043
1.998587	1986.713013
1.998700	2000.032471
1.998814	2054.269287
1.998928	1974.832642
1.999041	2004.510864
1.999155	2039.632813
1.999269	2050.206299
1.999382	2090.760986
1.999496	2000.480957
1.999610	2071.005615
1.999724	2010.728149
1.999838	1977.711426
1.999951	2053.652588
2.000065	1982.514282
2.000179	1982.191528
2.000293	1943.756104
2.000407	2006.043579
2.000521	1975.781006
2.000635	1923.760010
2.000748	2005.064087
2.000862	1982.976685
2.000976	2045.206787
2.001091	1966.015747
2.001204	2058.135010
2.001318	2014.306152
2.001432	2005.824585
2.001547	1994.628052
2.001661	2040.492920
2.001775	1972.245972
2.001889	1950.195679
2.002003	1979.750977
2.002117	1973.998047
2.002231	2027.973145
2.002346	1946.211548
2.002460	2035.454712
2.002574	2040.550293
2.002688	1956.113281
2.002802	1958.507324
2.002917	1988.022339
2.003031	2047.356689
2.003145	1995.508789
2.003260	1892.171631
2.003374	2019.252563
2.003489	2024.343750
2.003603	2029.433105
2.003717	1974.920898
2.003832	1990.851074
2.003946	1909.280884
2.004061	1976.663940
2.004175	1938.439453
2.004290	2016.623169
2.004404	2054.184814
2.004519	1988.906372
2.004633	1983.171265
2.004748	2036.950562
2.004862	1936.545898
2.004977	1965.976929
2.005092	1889.950562
2.005206	2013.996826
2.005321	1981.233765
2.005436	1948.481323
2.005550	2037.330933
2.005665	1988.370361
2.005780	1952.931519
2.005895	1904.000610
2.006010	1949.594971
2.006124	2038.371704
2.006239	1924.665161
2.006354	1927.050537
2.006469	1918.640991
2.006584	2023.553101
2.006699	2044.804443
2.006814	1898.822876
2.006928	1990.203003
2.007043	1987.182373
2.007159	1930.245239
2.007273	1956.885010
2.007388	1937.701172
2.007504	1993.971069
2.007618	1982.869629
2.007734	1942.141235
2.007849	2036.088013
2.007964	1930.737061
2.008079	1995.038940
2.008194	1930.107666
2.008309	1919.027222
2.008425	1878.348755
2.008540	1918.401611
2.008655	1931.539673
2.008770	1917.776245
2.008885	1804.513428
2.009001	2013.949707
2.009116	1836.186035
2.009231	1911.150024
2.009346	1988.776978
2.009462	1891.717285
2.009577	1958.575317
2.009693	1915.276489
2.009808	2014.338257
2.009923	1890.483887
2.010039	1903.600098
2.010154	1967.717041
2.010270	1900.295410
2.010386	1975.126221
2.010501	1902.358887
2.010617	1963.751221
2.010732	1952.701782
2.010848	1901.428345
2.010963	1828.720215
2.011079	1927.617920
2.011194	1871.012329
2.011310	1937.709595
2.011426	1929.354614
2.011541	1886.172363
2.011657	1928.725342
2.011773	1912.340698
2.011889	1941.485718
2.012004	1941.169067
2.012120	1855.187256
2.012236	1921.799683
2.012352	1996.418701
2.012468	1955.957153
2.012583	1958.313354
2.012699	1957.993896
2.012815	1877.441895
2.012931	1911.897461
2.013047	1962.382935
2.013163	1948.697144
2.013279	1828.108887
2.013395	1907.977783
2.013511	1814.153442
2.013627	1912.697998
2.013743	1893.689331
2.013859	1904.062378
2.013975	1853.020508
2.014091	1863.396729
2.014208	1849.746704
2.014324	1929.507324
2.014440	1875.826172
2.014556	1816.826660
2.014672	1813.862793
2.014788	1853.571899
2.014905	1815.937378
2.015021	1823.639404
2.015137	1844.667358
2.015254	1836.370483
2.015370	1812.087280
2.015486	1825.113525
2.015603	1848.791260
2.015719	1848.489502
2.015835	1723.022339
2.015952	1922.440552
2.016068	1794.339844
2.016185	1780.738037
2.016301	1836.335815
2.016418	1764.191162
2.016534	1769.224121
2.016651	1854.057007
2.016767	1912.265869
2.016884	1869.406738
2.017000	1861.125244
2.017117	1836.896484
2.017234	1794.070557
2.017350	1841.611572
2.017467	1846.625000
2.017583	1886.172119
2.017700	1800.867432
2.017817	1874.933350
2.017934	1879.937744
2.018050	1858.391968
2.018167	1775.801636
2.018284	1733.047974
2.018401	1838.906738
2.018517	1822.687744
2.018634	1822.390137
2.018751	1761.090820
2.018868	1744.892334
2.018985	1848.011108
2.019102	1834.454468
2.019219	1834.154907
2.019336	1916.007813
2.019453	1865.351440
2.019570	1793.518066
2.019687	1840.903076
2.019804	1853.844116
2.019921	1848.245483
2.020038	1739.396606
2.020155	1866.170898
2.020272	1852.632935
2.020390	1767.652344
2.020507	1881.130981
2.020624	1790.882690
2.020741	1758.851318
2.020858	1819.386475
2.020976	1729.192383
2.021093	1773.850952
2.021210	1799.992676
2.021327	1807.626709
2.021445	1775.623779
2.021562	1881.008179
2.021679	1767.119141
2.021797	1737.779297
2.021914	1779.744507
2.022031	1753.052246
2.022149	1742.206909
2.022266	1741.922119
2.022384	1754.831665
2.022501	1825.781982
2.022619	1809.655640
2.022736	1827.822754
2.022854	1840.709595
2.022971	1721.757690
2.023089	1853.289063
2.023206	1768.639648
2.023324	1765.715210
2.023442	1744.346802
2.023559	1751.965210
2.023677	1741.142334
2.023795	1819.867920
2.023912	1816.937134
2.024030	1787.679199
2.024148	1700.518311
2.024266	1747.615356
2.024384	1721.014404
2.024501	1791.772461
2.024619	1770.434204
2.024737	1685.977295
2.024855	1735.667725
2.024973	1787.971313
2.025091	1745.615967
2.025208	1695.388794
2.025326	1689.855347
2.025445	1715.855469
2.025563	1754.983154
2.025681	1817.739136
2.025798	1785.925415
2.025917	1662.214600
2.026035	1743.333252
2.026153	1790.299438
2.026271	1771.634033
2.026389	1794.962158
2.026507	1684.469604
2.026625	1726.167725
2.026743	1718.016602
2.026861	1730.848022
2.026980	1762.029663
2.027098	1709.308594
2.027216	1711.650146
2.027334	1753.302612
2.027453	1627.238892
2.027571	1679.371094
2.027689	1734.105713
2.027808	1715.488525
2.027926	1715.207886
2.028044	1712.308960
2.028163	1756.531006
2.028281	1672.488281
2.028400	1669.597656
2.028518	1713.804932
2.028637	1666.435181
2.028755	1713.244019
2.028874	1780.959106
2.028992	1694.379761
2.029111	1589.528198
2.029229	1714.736572
2.029348	1774.566528
2.029467	1661.913940
2.029585	1588.487793
2.029704	1742.348633
2.029823	1702.886597
2.029941	1705.219116
2.030060	1733.660278
2.030179	1613.293213
2.030298	1680.891113
2.030416	1691.054565
2.030535	1654.248535
2.030654	1727.024048
2.030773	1653.706909
2.030892	1755.145996
2.031011	1668.810547
2.031129	1715.464966
2.031248	1655.230835
2.031367	1678.415894
2.031486	1665.112061
2.031605	1607.520996
2.031724	1661.961792
2.031843	1622.621704
2.031962	1588.502563
2.032081	1671.560059
2.032200	1707.731812
2.032319	1665.807007
2.032439	1662.931763
2.032557	1618.425903
2.032677	1649.379395
2.032796	1594.485718
2.032915	1612.429321
2.033034	1690.173218
2.033154	1533.906006
2.033273	1632.432495
2.033392	1611.373169
2.033511	1600.714844
2.033631	1631.630371
2.033750	1618.374512
2.033869	1592.136475
2.033989	1630.828491
2.034108	1685.086426
2.034227	1651.062256
2.034347	1681.938721
2.034466	1637.545410
2.034586	1590.571899
2.034705	1592.905640
2.034825	1595.238525
2.034944	1594.977051
2.035064	1563.599243
2.035183	1565.935669
2.035303	1589.008667
2.035423	1609.482422
2.035542	1549.617920
2.035662	1608.954834
2.035781	1619.053101
2.035901	1525.545532
2.036021	1592.626099
2.036140	1574.240479
2.036260	1553.272217
2.036380	1573.724487
2.036500	1594.170044
2.036619	1544.745972
2.036739	1593.647461
2.036859	1655.466187
2.036979	1691.402100
2.037099	1603.207031
2.037219	1504.699219
2.037339	1664.720703
2.037459	1592.080444
2.037578	1669.343140
2.037699	1565.721436
2.037818	1521.549072
2.037939	1578.122314
2.038059	1603.687744
2.038178	1554.366699
2.038299	1608.325073
2.038419	1564.181641
2.038539	1538.117798
2.038659	1625.596069
2.038779	1488.595459
2.038899	1506.407593
2.039020	1588.689819
2.039140	1567.800293
2.039260	1539.182983
2.039380	1621.419312
2.039500	1502.595215
2.039621	1543.579590
2.039741	1471.184326
2.039861	1643.540405
2.039982	1553.122803
2.040102	1480.761353
2.040222	1544.888794
2.040343	1511.168213
2.040463	1539.234009
2.040584	1546.702026
2.040704	1662.239014
2.040825	1574.494385
2.040945	1617.964722
2.041066	1496.821899
2.041186	1532.576416
2.041307	1524.611938
2.041427	1552.638306
2.041548	1565.234375
2.041668	1539.280029
2.041789	1569.859253
2.041910	1515.654663
2.042031	1559.070190
2.042151	1510.021118
2.042272	1489.232056
2.042393	1532.630371
2.042513	1493.876953
2.042634	1560.357544
2.042755	1501.084351
2.042876	1495.706909
2.042997	1485.200928
2.043118	1536.250977
2.043238	1438.556519
2.043359	1543.438232
2.043480	1456.028198
2.043601	1589.065674
2.043722	1491.426392
2.043843	1575.733154
2.043964	1452.510498
2.044085	1429.220093
2.044206	1539.104370
2.044327	1482.520996
2.044448	1515.558472
2.044569	1530.667480
2.044690	1474.113159
2.044812	1422.694946
2.044933	1491.537720
2.045054	1429.901611
2.045175	1508.950684
2.045296	1508.702881
2.045418	1551.919067
2.045539	1497.982178
2.045660	1426.171997
2.045781	1512.822876
2.045903	1484.469116
2.046024	1512.325928
2.046145	1463.547974
2.046267	1506.721558
2.046388	1432.427002
2.046510	1478.144409
2.046631	1544.266724
2.046753	1482.762939
2.046874	1492.725952
2.046995	1405.738281
2.047117	1471.828857
2.047239	1412.927612
2.047360	1491.745239
2.047482	1506.797607
2.047603	1453.017700
2.047725	1429.840332
2.047847	1414.315552
2.047968	1482.876343
2.048090	1505.559937
2.048212	1467.106689
2.048333	1489.785278
2.048455	1476.809326
2.048577	1344.184814
2.048699	1476.323975
2.048820	1450.631592
2.048942	1450.393188
2.049064	1457.787231
2.049186	1500.790771
2.049308	1490.370850
2.049430	1424.011108
2.049551	1451.744019
2.049674	1466.757568
2.049795	1479.224609
2.049917	1412.910034
2.050040	1420.300171
2.050161	1458.172241
2.050283	1442.692749
2.050405	1452.613647
2.050528	1363.505737
2.050650	1386.129883
2.050772	1454.435547
2.050894	1408.514771
2.051016	1433.657715
2.051138	1435.958984
2.051260	1456.015747
2.051383	1415.197144
2.051505	1480.894653
2.051627	1488.257202
2.051749	1439.848511
2.051872	1477.629517
2.051994	1421.636108
2.052116	1332.723022
2.052239	1400.902222
2.052361	1466.526245
2.052484	1337.130371
2.052606	1372.358765
2.052728	1440.486450
2.052851	1480.748657
2.052973	1379.273926
2.053096	1411.941772
2.053218	1439.538818
2.053341	1414.006714
2.053463	1436.536011
2.053586	1335.151855
2.053709	1413.308838
2.053831	1296.794556
2.053954	1324.383057
2.054076	1425.246460
2.054199	1344.160156
2.054322	1384.358276
2.054445	1406.862427
2.054567	1401.580200
2.054690	1396.299683
2.054813	1355.677246
2.054936	1355.454102
2.055058	1388.039185
2.055181	1382.764160
2.055304	1397.673828
2.055427	1314.202515
2.055550	1313.986206
2.055673	1351.594360
2.055796	1300.947510
2.055919	1348.628662
2.056042	1348.406616
2.056165	1401.104004
2.056288	1274.895508
2.056411	1357.817261
2.056534	1428.118164
2.056657	1352.333618
2.056780	1379.807861
2.056903	1377.063110
2.057026	1298.807251
2.057149	1364.026367
2.057273	1341.155640
2.057396	1391.251343
2.057519	1343.229370
2.057642	1310.313232
2.057765	1335.243286
2.057889	1289.768311
2.058012	1279.500854
2.058136	1344.636963
2.058259	1402.212769
2.058382	1276.356201
2.058506	1336.436401
2.058629	1351.286377
2.058753	1388.732788
2.058876	1275.515503
2.058999	1270.284424
2.059123	1342.866089
2.059246	1259.827515
2.059370	1259.619873
2.059494	1337.184937
2.059617	1339.472900
2.059741	1326.712402
2.059864	1268.820190
2.059988	1338.810913
2.060112	1346.110474
2.060235	1278.218262
2.060359	1385.761230
2.060483	1345.445190
2.060606	1360.253906
2.060730	1339.992432
2.060854	1304.712158
2.060978	1301.993286
2.061101	1291.765015
2.061225	1339.109253
2.061349	1261.308105
2.061473	1331.161377
2.061597	1283.408203
2.061721	1268.188599
2.061845	1282.985229
2.061969	1320.281738
2.062093	1347.565430
2.062217	1269.852295
2.062341	1314.630249
2.062465	1304.417969
2.062589	1279.218140
2.062713	1279.007202
2.062837	1261.312866
2.062961	1261.104858
2.063085	1258.400146
2.063210	1313.113647
2.063334	1285.441162
2.063458	1250.290894
2.063582	1230.123291
2.063706	1302.268677
2.063831	1284.593384
2.063955	1244.478394
2.064079	1239.286133
2.064204	1249.054199
2.064328	1258.819092
2.064452	1261.103760
2.064577	1263.387573
2.064701	1278.128052
2.064825	1230.586914
2.064950	1222.911987
2.065074	1195.317627
2.065199	1229.978027
2.065324	1274.584717
2.065448	1296.775635
2.065573	1216.926392
2.065697	1311.276855
2.065822	1253.841553
2.065946	1206.374634
2.066071	1283.271362
2.066195	1203.489990
2.066320	1185.888428
2.066445	1237.893066
2.066570	1272.483276
2.066694	1205.180664
2.066819	1219.888794
2.066944	1162.553467
2.067069	1308.898560
2.067194	1194.452271
2.067318	1189.289429
2.067443	1171.715942
2.067568	1156.630249
2.067693	1211.035156
2.067818	1245.572388
2.067943	1200.712158
2.068068	1207.955200
2.068193	1155.675903
2.068318	1148.046387
2.068443	1276.773804
2.068568	1212.115234
2.068693	1184.653198
2.068818	1268.707764
2.068943	1258.588135
2.069068	1213.791992
2.069193	1178.917480
2.069319	1277.775146
2.069444	1220.618530
2.069569	1205.563965
2.069694	1210.315063
2.069819	1279.406006
2.069945	1172.801392
2.070070	1133.026001
2.070195	1187.254639
2.070321	1248.884521
2.070446	1186.862549
2.070571	1164.416504
2.070697	1186.470459
2.070822	1213.459961
2.070948	1156.426514
2.071073	1158.706055
2.071199	1207.918335
2.071324	1207.718750
2.071450	1247.029053
2.071575	1130.782104
2.071701	1115.783936
2.071826	1194.580078
2.071952	1209.189087
2.072078	1130.034912
2.072203	1142.182739
2.072329	1218.455811
2.072454	1228.118896
2.072580	1144.082275
2.072706	1158.684937
2.072832	1264.483276
2.072958	1165.695435
2.073083	1150.718384
2.073209	1118.500610
2.073335	1113.389282
2.073461	1152.610718
2.073587	1149.957764
2.073713	1149.767700
2.073838	1161.885742
2.073964	1134.620239
2.074090	1232.864990
2.074217	1178.532349
2.074342	1082.397705
2.074469	1190.440674
2.074594	1170.570435
2.074721	1209.717285
2.074847	1135.766235
2.074973	1248.644653
2.075099	1196.829468
2.075225	1118.002808
2.075351	1147.298828
2.075477	1252.731567
2.075603	1191.126221
2.075730	1068.152954
2.075856	1195.642456
2.075982	1111.984497
2.076109	1121.617798
2.076235	1111.616699
2.076361	1140.874756
2.076488	1128.420654
2.076614	1081.632935
2.076741	1081.454102
2.076867	1115.601318
2.076993	1120.319702
2.077120	1095.623779
2.077246	1117.498413
2.077373	1109.962769
2.077499	1095.080078
2.077626	1124.292114
2.077753	1136.351318
2.077879	1153.303711
2.078006	1138.423462
2.078132	1077.039673
2.078259	1111.125244
2.078386	1125.623413
2.078512	1159.689575
2.078639	1061.649780
2.078766	1156.859985
2.078892	1122.433105
2.079019	1129.582275
2.079146	1146.507324
2.079273	1063.215698
2.079400	1153.459106
2.079527	1099.514160
2.079654	1087.117310
2.079780	1047.856445
2.079907	1118.505371
2.080034	1130.529053
2.080161	1027.805420
2.080288	1044.721802
2.080415	1061.632568
2.080542	1076.097656
2.080669	1075.919434
2.080796	1053.787354
2.080923	1097.513428
2.081050	1111.962769
2.081177	1060.578369
2.081305	1075.028931
2.081432	1040.728638
2.081559	1079.546631
2.081686	1074.494873
2.081814	1069.444702
2.081941	1091.188843
2.082068	1039.867065
2.082195	1059.173950
2.082323	1085.777710
2.082450	1058.822998
2.082577	1090.285400
2.082705	1090.104736
2.082832	1041.266846
2.082960	1004.607422
2.083087	1045.786011
2.083215	1009.137878
2.083342	1052.733276
2.083470	1033.112061
2.083597	1057.245361
2.083724	972.018555
2.083852	1042.317139
2.083980	1134.455566
2.084107	1037.114014
2.084235	1070.940308
2.084363	1024.630127
2.084490	1029.315552
2.084618	1024.290527
2.084746	1065.376831
2.084874	1062.773804
2.085001	1009.225220
2.085129	1043.016602
2.085257	996.764587
2.085385	1001.448975
2.085513	1112.806030
2.085641	1078.685303
2.085768	993.680176
2.085896	1034.709961
2.086024	1044.229614
2.086152	1068.280640
2.086280	1058.415405
2.086408	1002.543091
2.086536	1038.694824
2.086664	1055.468262
2.086792	1043.191284
2.086920	1052.698242
2.087049	996.872986
2.087177	1045.091553
2.087305	986.867188
2.087433	996.377075
2.087561	1001.047791
2.087689	1034.728027
2.087818	1000.715759
2.087946	1089.970947
2.088074	1010.049377
2.088202	1082.361328
2.088331	1031.454590
2.088459	1072.341553
2.088587	1028.697632
2.088716	1035.770020
2.088844	992.146545
2.088973	1018.531311
2.089101	958.032837
2.089230	1047.146729
2.089358	1015.612061
2.089487	1025.091431
2.089615	954.985535
2.089744	1007.873047
2.089872	1017.348877
2.090001	1082.260254
2.090129	1002.551392
2.090258	1009.613708
2.090387	992.581909
2.090515	1038.183960
2.090644	999.477600
2.090773	1001.719666
2.090901	1001.553406
2.091030	965.279419
2.091159	1018.068359
2.091288	991.429138
2.091417	991.264587
2.091546	947.799500
2.091674	930.805908
2.091803	990.770935
2.091932	949.731934
2.092061	949.574219
2.092190	973.452393
2.092319	1006.935364
2.092448	965.920776
2.092577	996.991455
2.092706	996.825867
2.092835	989.455566
2.092964	938.866211
2.093093	1005.932495
2.093223	952.956726
2.093352	974.398438
2.093481	1027.027710
2.093610	909.296387
2.093739	993.103333
2.093868	966.555969
2.093998	978.385437
2.094127	961.439636
2.094256	963.677124
2.094386	1040.214966
2.094515	960.960571
2.094645	958.404907
2.094774	965.432495
2.094903	1015.571594
2.095033	929.189392
2.095162	914.668518
2.095292	861.848022
2.095421	1005.322266
2.095551	930.965149
2.095680	985.845520
2.095810	985.681702
2.095939	952.029419
2.096069	985.354065
2.096198	944.539246
2.096328	956.336426
2.096458	932.273071
2.096588	936.898193
2.096717	1006.042236
2.096847	996.317993
2.096977	955.541870
2.097106	921.944580
2.097236	979.104797
2.097366	914.475098
2.097496	954.906555
2.097626	921.331604
2.097756	954.589050
2.097886	968.746765
2.098016	949.500244
2.098145	977.965759
2.098275	968.263550
2.098405	894.183411
2.098536	951.252930
2.098665	929.641418
2.098796	908.037109
2.098926	934.098022
2.099056	924.412659
2.099186	890.909363
2.099316	974.121155
2.099446	940.620667
2.099576	928.559570
2.099707	876.033508
