#Wave		#Intensity
1.699584	387.361572
1.699649	387.361572
1.699714	349.043243
1.699779	348.982849
1.699844	420.618866
1.699908	372.756775
1.699973	291.464478
1.700038	382.182373
1.700103	367.786926
1.700168	439.357727
1.700233	377.209320
1.700298	319.856384
1.700363	424.810364
1.700428	391.330658
1.700493	438.977997
1.700558	372.112640
1.700623	386.357880
1.700688	376.753052
1.700753	333.774109
1.700818	414.761841
1.700883	405.157074
1.700948	386.024139
1.701013	414.546875
1.701078	409.711182
1.701143	319.138458
1.701208	414.332062
1.701273	319.028198
1.701338	395.145782
1.701403	352.237793
1.701468	428.323334
1.701534	413.974396
1.701599	385.357880
1.701664	375.777985
1.701729	399.492401
1.701794	375.648254
1.701859	347.058075
1.701925	399.285553
1.701990	432.484711
1.702055	460.920624
1.702120	437.086365
1.702186	484.512146
1.702251	375.194672
1.702316	384.626892
1.702381	479.513733
1.702447	408.228394
1.702512	403.411957
1.702577	393.851959
1.702643	374.806488
1.702708	393.716125
1.702773	403.133728
1.702839	450.483521
1.702904	393.512482
1.702969	398.184937
1.703035	426.553162
1.703100	317.490387
1.703166	350.600586
1.703231	383.699371
1.703297	402.578064
1.703362	416.714874
1.703427	426.112244
1.703493	369.233643
1.703558	482.760803
1.703624	378.570679
1.703689	359.580200
1.703755	416.284302
1.703820	378.375061
1.703886	430.327515
1.703952	420.797272
1.704017	345.088898
1.704083	425.378784
1.704148	430.031158
1.704214	444.131531
1.704280	472.399017
1.704345	462.871338
1.704411	425.012726
1.704476	401.331818
1.704542	396.542023
1.704608	438.953094
1.704674	405.843750
1.704739	382.182404
1.704805	419.856567
1.704871	438.651031
1.704936	466.870758
1.705002	509.225952
1.705068	447.853180
1.705134	419.495544
1.705199	466.549622
1.705265	419.351257
1.705331	400.435120
1.705397	405.076477
1.705463	428.553711
1.705528	452.022888
1.705594	433.114136
1.705660	447.160522
1.705726	376.491516
1.705792	428.185486
1.705858	428.111877
1.705924	442.149445
1.705989	442.073456
1.706056	484.316406
1.706121	376.103455
1.706187	470.048523
1.706253	394.772919
1.706319	394.705109
1.706385	446.316010
1.706451	394.569519
1.706517	436.769806
1.706583	361.564484
1.706649	403.755920
1.706715	427.156738
1.706781	520.947876
1.706847	441.087311
1.706913	441.011597
1.706980	469.080719
1.707046	431.480194
1.707112	440.784515
1.707178	496.969543
1.707244	487.509094
1.707310	435.870819
1.707376	463.911896
1.707443	440.406403
1.707509	416.908997
1.707575	449.622437
1.707641	449.545288
1.707707	449.468170
1.707773	486.840332
1.707840	463.355042
1.707906	505.391541
1.707972	397.693634
1.708038	430.371063
1.708105	481.745850
1.708171	458.281555
1.708237	495.607300
1.708303	490.847595
1.708370	481.415558
1.708436	443.947937
1.708503	476.578186
1.708569	462.481903
1.708635	420.366028
1.708702	406.284210
1.708768	452.905914
1.708834	518.184998
1.708901	476.088379
1.708967	518.007446
1.709034	424.600006
1.709100	433.857513
1.709167	471.097900
1.709233	475.680756
1.709299	466.273804
1.709366	480.179749
1.709432	410.180420
1.709499	470.694641
1.709566	503.230865
1.709632	512.462219
1.709699	437.847260
1.709765	489.000977
1.709832	512.199036
1.709898	456.244690
1.709965	442.202301
1.710032	474.704376
1.710098	456.010468
1.710165	423.365845
1.710231	469.809143
1.710298	497.633453
1.710365	516.148254
1.710431	474.217255
1.710498	515.971680
1.710565	446.169434
1.710631	525.088745
1.710698	492.476898
1.710765	469.166595
1.710832	478.375214
1.710898	496.867920
1.710965	454.997467
1.711032	464.203766
1.711099	491.971863
1.711165	575.415833
1.711232	473.245026
1.711299	463.886414
1.711366	412.788361
1.711433	496.188812
1.711500	584.197266
1.711566	407.941071
1.711633	500.569397
1.711700	463.410980
1.711767	407.731995
1.711834	500.312866
1.711901	546.544739
1.711968	500.141937
1.712035	435.234375
1.712102	546.264709
1.712169	513.771423
1.712236	513.683716
1.712303	555.238892
1.712370	490.377258
1.712437	499.544373
1.712504	439.338989
1.712571	503.997650
1.712638	471.550323
1.712705	531.559082
1.712772	549.954224
1.712839	480.550232
1.712906	619.064819
1.712973	512.719910
1.713040	531.105652
1.713107	554.102661
1.713175	512.457520
1.713242	493.906281
1.713309	516.897827
1.713376	530.652771
1.713443	512.107910
1.713511	488.956573
1.713578	484.261169
1.713645	534.902039
1.713712	484.096008
1.713779	566.987183
1.713847	451.668884
1.713914	502.280731
1.713981	525.231567
1.714048	557.387634
1.714116	502.023895
1.714183	557.197571
1.714250	598.540039
1.714318	497.163879
1.714385	538.502380
1.714453	478.587250
1.714520	584.329041
1.714587	501.425323
1.714655	469.143738
1.714722	505.853119
1.714789	556.343628
1.714857	565.443054
1.714924	579.135681
1.714992	505.508545
1.715059	505.422455
1.715127	514.524292
1.715194	528.216248
1.715262	578.642700
1.715329	505.078247
1.715397	523.355591
1.715464	578.347229
1.715532	601.195129
1.715599	532.265381
1.715667	467.946777
1.715734	499.975647
1.715802	609.958191
1.715870	573.171448
1.715937	582.243042
1.716005	540.889709
1.716073	517.882507
1.716140	549.870117
1.716208	540.613647
1.716275	604.651367
1.716343	545.009644
1.716411	540.337769
1.716478	586.029419
1.716546	599.662476
1.716614	594.983704
1.716682	576.578430
1.716749	585.630859
1.716817	622.127014
1.716885	539.694885
1.716953	585.332214
1.717021	571.516296
1.717088	521.134277
1.717156	557.610291
1.717224	525.526917
1.717292	630.525085
1.717360	584.735474
1.717427	612.040894
1.717495	589.103455
1.717563	598.135193
1.717631	575.207825
1.717699	611.625061
1.717767	547.630859
1.717835	584.040344
1.717903	547.444824
1.717971	515.422974
1.718039	565.500793
1.718107	597.322754
1.718175	656.487549
1.718243	606.236267
1.718311	610.690674
1.718379	574.134033
1.718447	619.595032
1.718515	583.049255
1.718583	637.601868
1.718651	573.744263
1.718719	523.566589
1.718787	568.997498
1.718855	464.223175
1.718923	564.253967
1.718992	573.257507
1.719060	659.589172
1.719128	664.025330
1.719196	613.891846
1.719264	581.961670
1.719332	590.954529
1.719401	549.948975
1.719469	586.209778
1.719537	608.827820
1.719605	604.181824
1.719674	649.498840
1.719742	613.059265
1.719810	581.172424
1.719878	631.009949
1.719947	649.058411
1.720015	576.338745
1.720083	617.077026
1.720152	621.508972
1.720220	635.010986
1.720288	630.368286
1.720357	648.398499
1.720425	607.487183
1.720493	616.449646
1.720562	616.345215
1.720630	657.021362
1.720699	584.423401
1.720767	629.620850
1.720835	606.869812
1.720904	615.823181
1.720972	615.718872
1.721041	611.088013
1.721109	656.242554
1.721178	610.880981
1.721246	624.350342
1.721315	655.909180
1.721383	651.275391
1.721452	501.939728
1.721520	669.139648
1.721589	650.944580
1.721658	655.354065
1.721726	659.762024
1.721795	623.505066
1.721864	618.882141
1.721932	614.260742
1.722001	591.577515
1.722069	614.052856
1.722138	627.491882
1.722207	631.899292
1.722275	636.305176
1.722344	600.101196
1.722413	703.758972
1.722481	568.324524
1.722550	640.384338
1.722619	712.419800
1.722688	689.758179
1.722756	594.984802
1.722825	662.484619
1.722894	612.807312
1.722963	522.600159
1.723032	590.078003
1.723101	621.503723
1.723169	720.462219
1.723238	621.293579
1.723307	702.213135
1.723376	589.579285
1.723445	634.478027
1.723514	701.857056
1.723583	670.250122
1.723651	634.156372
1.723720	656.533203
1.723789	624.949890
1.723858	674.292419
1.723927	705.640137
1.723996	727.989685
1.724065	682.936646
1.724134	660.360046
1.724203	727.620789
1.724272	700.553467
1.724341	619.615662
1.724410	682.359985
1.724479	691.221619
1.724549	605.838684
1.724618	686.501221
1.724687	672.926758
1.724756	740.094421
1.724825	681.668823
1.724894	784.683533
1.724963	659.022888
1.725032	690.288330
1.725101	690.171814
1.725171	752.787598
1.725240	618.256836
1.725309	721.177917
1.725378	698.663147
1.725447	698.545227
1.725517	693.950256
1.725586	734.120178
1.725655	644.484558
1.725724	715.973145
1.725794	715.852356
1.725863	693.364929
1.725932	764.809021
1.726002	657.356506
1.726071	612.535034
1.726140	742.070557
1.726210	715.128052
1.726279	643.506714
1.726348	723.822937
1.726418	763.906494
1.726487	754.844604
1.726557	754.717285
1.726626	678.684509
1.726696	723.212891
1.726765	678.455688
1.726834	749.745667
1.726904	740.695251
1.726973	771.799255
1.727043	691.379883
1.727112	668.964539
1.727182	789.245117
1.727251	722.238159
1.727321	686.456360
1.727390	771.019104
1.727460	757.521179
1.727530	793.035583
1.727599	685.993835
1.727669	739.323303
1.727738	770.369812
1.727808	725.717468
1.727878	756.755737
1.727947	814.488098
1.728017	743.150818
1.728087	627.345032
1.728156	756.246033
1.728226	711.641113
1.728296	653.710205
1.728365	769.202881
1.728435	711.281738
1.728505	826.725769
1.728575	742.150330
1.728644	759.798462
1.728714	737.457947
1.728784	786.193298
1.728854	732.768677
1.728923	732.645325
1.728993	745.840637
1.729063	727.959961
1.729133	825.474243
1.729203	741.026855
1.729273	736.465637
1.729343	816.186035
1.729412	798.308472
1.729482	753.831177
1.729552	700.501709
1.729622	837.800964
1.729692	815.499695
1.729762	722.304871
1.729832	757.627930
1.729902	735.351379
1.729972	757.373169
1.730042	752.817444
1.730112	845.670288
1.730182	770.271667
1.730252	721.455017
1.730322	725.759094
1.730392	756.609375
1.730462	765.329956
1.730532	729.816223
1.730602	804.874146
1.730672	813.582092
1.730743	738.290100
1.730813	835.409424
1.730883	883.882568
1.730953	813.035339
1.731023	773.137329
1.731093	715.584045
1.731164	768.461121
1.731234	816.904724
1.731304	768.202942
1.731374	807.801819
1.731444	834.146973
1.731515	816.355957
1.731585	705.918945
1.731655	807.259216
1.731725	864.460266
1.731796	806.988098
1.731866	753.944214
1.731936	789.083923
1.732007	815.396729
1.732077	876.955139
1.732147	749.031860
1.732218	911.903320
1.732288	898.536499
1.732358	867.558655
1.732429	854.203735
1.732499	713.184387
1.732570	761.482666
1.732640	805.363831
1.732710	734.826172
1.732781	932.676636
1.732851	818.154480
1.732922	747.650085
1.732992	883.837952
1.733063	896.879089
1.733133	769.252502
1.733204	791.098389
1.733274	720.657593
1.733345	773.258911
1.733416	913.698181
1.733486	825.704041
1.733557	860.695984
1.733627	864.942200
1.733698	834.068359
1.733769	895.375854
1.733839	873.283875
1.733910	785.384949
1.733980	908.086182
1.734051	877.230835
1.734122	925.323364
1.734193	798.012451
1.734263	854.869995
1.734334	854.726685
1.734405	815.141113
1.734475	854.440186
1.734546	889.345032
1.734617	753.407471
1.734688	832.112915
1.734758	858.246338
1.734829	831.834106
1.734900	836.072021
1.734971	800.919128
1.735042	875.174805
1.735113	835.651917
1.735183	940.497681
1.735254	874.734985
1.735325	892.080261
1.735396	913.791870
1.735467	926.753235
1.735538	878.519836
1.735609	795.342468
1.735680	882.594910
1.735751	838.761597
1.735822	808.046448
1.735893	834.113647
1.735964	833.973999
1.736035	903.684387
1.736106	838.059692
1.736177	903.381836
1.736248	794.144775
1.736319	876.903198
1.736390	911.652222
1.736461	950.750793
1.736532	972.394226
1.736603	898.115173
1.736674	963.350708
1.736745	906.531250
1.736817	875.876404
1.736888	906.227905
1.736959	875.583374
1.737030	932.057190
1.737101	931.901245
1.737172	896.913757
1.737244	883.704041
1.737315	853.088745
1.737386	970.443726
1.737457	1035.546997
1.737528	922.265747
1.737600	904.713196
1.737671	952.399292
1.737742	891.366211
1.737814	956.428223
1.737885	886.721497
1.737956	951.762451
1.738028	869.044128
1.738099	899.310303
1.738170	968.660217
1.738242	851.236206
1.738313	977.021057
1.738384	911.733887
1.738456	872.513733
1.738527	915.769287
1.738599	928.634521
1.738670	876.415039
1.738742	989.055664
1.738813	1023.588257
1.738885	919.340881
1.738956	966.880981
1.739028	984.059692
1.739099	866.868103
1.739171	892.724976
1.739242	987.899475
1.739314	1013.727478
1.739385	944.255066
1.739457	983.073792
1.739528	904.969666
1.739600	1052.013916
1.739672	995.567017
1.739743	986.745117
1.739815	887.056885
1.739887	964.783691
1.739958	981.925232
1.740030	986.086243
1.740101	1011.866882
1.740173	890.640076
1.740245	985.592468
1.740317	950.851501
1.740388	1045.762085
1.740460	1015.343262
1.740532	1010.853882
1.740604	928.620972
1.740675	954.376709
1.740747	1044.889648
1.740819	1083.568359
1.740891	949.582703
1.740963	971.002075
1.741034	1052.822144
1.741106	983.620483
1.741178	1078.351318
1.741250	991.917725
1.741322	1026.247925
1.741394	1043.321777
1.741466	1099.184570
1.741538	1008.495300
1.741610	1029.872559
1.741681	1016.775635
1.741753	969.221924
1.741825	1012.129639
1.741897	955.980042
1.741969	1089.291016
1.742041	955.661255
1.742113	1050.191284
1.742185	899.399109
1.742257	1079.959595
1.742329	1101.289063
1.742401	1023.684021
1.742474	933.203369
1.742546	988.944702
1.742618	1096.255859
1.742690	1010.106689
1.742762	1087.295288
1.742834	988.285583
1.742906	1078.340576
1.742978	945.001587
1.743051	1095.160278
1.743123	1026.273315
1.743195	1099.088623
1.743267	1090.320313
1.743340	1017.176636
1.743412	1004.133667
1.743484	1046.870972
1.743556	1128.201660
1.743629	1072.256348
1.743701	1076.366089
1.743773	1097.624878
1.743845	1067.433838
1.743918	1007.249695
1.743990	1152.787476
1.744062	1041.192261
1.744135	972.474365
1.744207	1117.945190
1.744280	1027.824341
1.744352	1147.546143
1.744424	1061.731567
1.744497	1091.518066
1.744569	997.181885
1.744642	975.620728
1.744714	1056.746460
1.744786	1129.290039
1.744859	1043.564087
1.744931	1077.599854
1.745004	1056.043213
1.745076	1128.538452
1.745149	1098.432251
1.745221	1072.609497
1.745294	1038.249878
1.745367	1076.524414
1.745439	1123.328735
1.745512	1046.272827
1.745584	1174.192383
1.745657	1101.422729
1.745729	1165.265137
1.745802	1002.900146
1.745875	1139.275757
1.745947	1122.021362
1.746020	1066.382813
1.746093	1168.561157
1.746166	1087.348755
1.746238	1159.645752
1.746311	1176.503662
1.746384	1125.164185
1.746456	1154.806152
1.746529	1180.177490
1.746602	1184.241211
1.746675	1141.452759
1.746747	1141.263062
1.746820	1179.392944
1.746893	1157.911743
1.746966	1098.130737
1.747039	1204.338623
1.747112	1225.412964
1.747184	1123.108521
1.747257	1182.470703
1.747330	1046.185181
1.747403	1152.313232
1.747476	1160.624512
1.747549	1194.437012
1.747622	1155.988892
1.747695	1164.295288
1.747768	1151.356323
1.747841	1121.430054
1.747914	1108.502441
1.747987	1189.000488
1.748060	1154.837158
1.748133	1163.135376
1.748206	1175.675171
1.748279	1179.723511
1.748352	1230.442383
1.748425	1179.331665
1.748498	1268.207275
1.748571	1208.625610
1.748644	1140.583496
1.748717	1174.309204
1.748791	1250.410400
1.748864	1199.347046
1.748937	1249.995239
1.749010	1186.239258
1.749083	1215.693359
1.749156	1249.372803
1.749229	1185.648560
1.749303	1210.854248
1.749376	1193.721069
1.749449	1134.270020
1.749522	1167.935059
1.749596	1222.743530
1.749669	1184.468384
1.749742	1218.108154
1.749816	1277.109863
1.749889	1234.616577
1.749962	1280.913452
1.750035	1225.753418
1.750109	1225.550049
1.750182	1301.402710
1.750256	1280.063721
1.750329	1258.731689
1.750402	1207.844116
1.750476	1245.646606
1.750549	1258.105469
1.750623	1160.810791
1.750696	1211.263428
1.750769	1206.842773
1.750843	1223.518799
1.750916	1261.280884
1.750990	1366.512573
1.751063	1298.815063
1.751137	1256.437378
1.751211	1230.935791
1.751284	1222.302124
1.751358	1289.525635
1.751431	1306.165649
1.751505	1259.609009
1.751578	1234.127930
1.751652	1267.614136
1.751725	1170.559204
1.751799	1288.243652
1.751873	1288.030151
1.751946	1359.362061
1.752020	1350.721069
1.752094	1283.182739
1.752167	1341.860596
1.752241	1253.317261
1.752315	1324.595703
1.752389	1257.106323
1.752462	1311.545776
1.752536	1344.952271
1.752610	1273.290649
1.752684	1394.925659
1.752757	1331.681274
1.752831	1247.456909
1.752905	1364.836182
1.752979	1272.236450
1.753053	1272.025757
1.753127	1376.750366
1.753200	1300.981445
1.753274	1321.746094
1.753348	1388.652466
1.753422	1388.422485
1.753496	1325.283569
1.753570	1341.837158
1.753644	1299.689453
1.753718	1437.805420
1.753792	1383.082397
1.753866	1412.186646
1.753940	1286.259766
1.754014	1290.235840
1.754088	1315.152588
1.754162	1306.559570
1.754236	1377.522339
1.754310	1456.834106
1.754384	1360.323853
1.754458	1330.804321
1.754532	1380.794800
1.754606	1284.345093
1.754680	1384.520752
1.754754	1442.841797
1.754828	1363.155273
1.754902	1417.279785
1.754977	1337.623901
1.755051	1320.685059
1.755125	1349.717407
1.755199	1533.326172
1.755273	1487.122070
1.755347	1420.050171
1.755422	1286.185669
1.755496	1386.178589
1.755570	1365.076538
1.755645	1398.241699
1.755719	1339.586060
1.755793	1456.193848
1.755867	1460.124878
1.755942	1409.830322
1.756016	1413.767578
1.756090	1426.042969
1.756165	1471.666504
1.756239	1396.393066
1.756314	1383.659302
1.756388	1383.430542
1.756462	1441.529663
1.756537	1457.953735
1.756611	1545.175415
1.756685	1465.800171
1.756760	1411.432129
1.756834	1523.595215
1.756909	1398.479248
1.756983	1489.800049
1.757058	1506.196899
1.757132	1422.746460
1.757207	1489.061646
1.757281	1580.307007
1.757356	1480.253540
1.757431	1396.862427
1.757505	1425.728149
1.757580	1458.740234
1.757654	1475.120239
1.757729	1437.485352
1.757804	1441.401733
1.757878	1499.308594
1.757953	1519.823608
1.758028	1482.205933
1.758102	1498.565796
1.758177	1460.964111
1.758252	1547.868164
1.758326	1510.270752
1.758401	1555.653809
1.758476	1542.953735
1.758550	1447.317017
1.758625	1438.785400
1.758700	1488.295776
1.758775	1591.674805
1.758850	1471.227173
1.758924	1383.968384
1.758999	1458.312622
1.759074	1528.490234
1.759149	1499.246948
1.759224	1581.817017
1.759298	1515.312744
1.759373	1502.644165
1.759448	1564.478638
1.759523	1576.634888
1.759598	1630.161743
1.759673	1534.746704
1.759748	1608.943237
1.759823	1463.938110
1.759898	1629.085938
1.759973	1624.683105
1.760048	1578.947876
1.760123	1562.156616
1.760198	1524.710815
1.760273	1582.297852
1.760348	1627.473877
1.760423	1515.696411
1.760498	1639.324829
1.760573	1564.739624
1.760648	1585.121094
1.760723	1626.132080
1.760798	1700.141846
1.760874	1551.329834
1.760949	1559.324463
1.761024	1563.191772
1.761099	1604.172363
1.761174	1636.893066
1.761249	1624.255737
1.761325	1632.231445
1.761400	1619.598999
1.761475	1639.934204
1.761550	1639.663818
1.761626	1758.846680
1.761701	1684.425537
1.761776	1564.734009
1.761851	1696.221313
1.761927	1617.730835
1.762002	1695.662231
1.762077	1670.692627
1.762153	1555.216064
1.762228	1612.550903
1.762303	1694.544556
1.762379	1616.131714
1.762454	1611.753784
1.762529	1747.149170
1.762605	1767.412476
1.762680	1652.052979
1.762756	1783.265747
1.762831	1589.885132
1.762907	1663.559082
1.762982	1778.277588
1.763058	1679.435791
1.763133	1662.737061
1.763209	1724.035767
1.763284	1662.189209
1.763360	1731.674805
1.763435	1760.109375
1.763511	1792.636597
1.763586	1767.732544
1.763662	1673.123169
1.763738	1754.849976
1.763813	1660.273804
1.763889	1725.580566
1.763964	1770.375488
1.764040	1700.427856
1.764116	1818.953369
1.764191	1732.636475
1.764267	1752.828125
1.764343	1596.940186
1.764419	1776.815308
1.764494	1768.335938
1.764570	1727.117920
1.764646	1722.741577
1.764722	1747.006104
1.764797	1718.083740
1.764873	1705.530884
1.764949	1746.143555
1.765025	1766.299438
1.765100	1880.472168
1.765176	1769.805298
1.765252	1732.734375
1.765328	1810.082520
1.765404	1670.884644
1.765480	1756.386719
1.765556	1641.747192
1.765632	1780.308472
1.765708	1755.519897
1.765783	1706.247803
1.765859	1787.592285
1.765935	1795.459473
1.766011	1889.002197
1.766087	1811.185669
1.766163	1757.866333
1.766239	1692.330566
1.766315	1777.674194
1.766391	1704.003662
1.766467	1850.455444
1.766544	1846.075928
1.766620	1866.145020
1.766696	1768.064941
1.766772	1792.213501
1.766848	1914.094971
1.766924	1787.552246
1.767000	1832.041504
1.767076	1925.362549
1.767152	1863.997925
1.767229	1831.137939
1.767305	1794.220093
1.767381	2017.657349
1.767457	1891.242676
1.767533	1854.333130
1.767610	1967.872192
1.767686	1890.310181
1.767762	1938.773560
1.767838	1922.199585
1.767915	1925.946777
1.767991	1990.630371
1.768067	1913.128174
1.768144	1912.813721
1.768220	1859.712769
1.768296	1904.065430
1.768373	2005.231812
1.768449	1915.615112
1.768525	1854.432739
1.768602	1801.384766
1.768678	2007.970703
1.768755	1930.579834
1.768831	1922.152222
1.768908	1893.454834
1.768984	1929.628418
1.769060	1884.726440
1.769137	1985.729614
1.769214	2042.129150
1.769290	1968.872559
1.769367	1960.448120
1.769443	1923.677490
1.769520	2052.935303
1.769596	1906.851440
1.769673	1967.256104
1.769749	1991.216187
1.769826	1905.912109
1.769903	1998.653931
1.769979	1945.738159
1.770056	1997.997559
1.770132	2017.888794
1.770209	2057.989502
1.770286	2041.481445
1.770362	2126.025635
1.770439	1972.110474
1.770516	2012.192139
1.770593	2100.739258
1.770669	2189.257324
1.770746	2132.358154
1.770823	2119.894287
1.770900	2058.987793
1.770976	2030.393921
1.771053	2017.953003
1.771130	2094.291260
1.771207	2037.463501
1.771284	2113.773682
1.771361	2077.127441
1.771437	2024.362793
1.771514	1991.775024
1.771591	2160.761719
1.771668	2083.825439
1.771745	2091.543457
1.771822	2046.878052
1.771899	2102.943115
1.771976	2078.430176
1.772053	2070.034668
1.772130	2053.588379
1.772207	2105.589355
1.772284	2189.775635
1.772361	2213.564453
1.772438	2068.337158
1.772515	2059.951172
1.772592	2099.840088
1.772669	2175.914063
1.772746	2167.514404
1.772823	2094.786377
1.772900	2178.863770
1.772977	2206.642090
1.773054	2222.354980
1.773132	2213.954590
1.773209	2221.626221
1.773286	2189.127930
1.773363	2164.672607
1.773440	2236.595215
1.773517	2256.302490
1.773595	2235.862061
1.773672	2207.401123
1.773749	2186.975342
1.773826	2214.701660
1.773904	2290.556885
1.773981	2189.910645
1.774058	2245.694092
1.774136	2293.440186
1.774213	2281.037598
1.774290	2292.688232
1.774368	2095.943115
1.774445	2207.792236
1.774522	2291.561035
1.774600	2227.096436
1.774677	2202.701904
1.774755	2274.417725
1.774832	2238.012451
1.774909	2249.654541
1.774987	2257.290527
1.775064	2236.912598
1.775142	2244.547852
1.775219	2272.182373
1.775297	2399.799561
1.775374	2183.459717
1.775452	2187.100342
1.775529	2274.691406
1.775607	2238.345459
1.775684	2337.888428
1.775762	2357.484131
1.775840	2353.103027
1.775917	2344.728760
1.775995	2340.350830
1.776072	2264.098145
1.776150	2315.629395
1.776228	2375.127441
1.776305	2358.773682
1.776383	2450.168945
1.776461	2254.265137
1.776538	2341.658203
1.776616	2325.320801
1.776694	2472.491943
1.776772	2428.227295
1.776849	2356.071289
1.776927	2399.530762
1.777005	2446.961182
1.777083	2327.021729
1.777161	2466.079834
1.777238	2409.909668
1.777316	2521.030029
1.777394	2297.624268
1.777472	2492.334961
1.777550	2408.332031
1.777628	2431.818115
1.777706	2431.420166
1.777783	2323.595703
1.777861	2426.646240
1.777939	2398.406738
1.778017	2445.736084
1.778095	2397.621826
1.778173	2496.617188
1.778251	2603.529541
1.778329	2432.212891
1.778407	2495.391602
1.778485	2562.522705
1.778563	2478.686035
1.778641	2367.075684
1.778719	2493.758789
1.778797	2477.469727
1.778875	2548.518066
1.778953	2611.605225
1.779032	2523.874023
1.779110	2499.655029
1.779188	2483.377930
1.779266	2522.635742
1.779344	2486.531250
1.779422	2474.229248
1.779500	2660.154297
1.779579	2528.913330
1.779657	2484.904785
1.779735	2504.311035
1.779813	2678.223633
1.779892	2598.561279
1.779970	2582.293945
1.780048	2569.991943
1.780126	2672.512939
1.780205	2592.903320
1.780283	2556.857422
1.780361	2615.799316
1.780440	2662.851807
1.780518	2642.636230
1.780596	2638.248779
1.780675	2712.957764
1.780753	2688.789551
1.780832	2668.582764
1.780910	2652.335205
1.780988	2754.657959
1.781067	2627.759033
1.781145	2745.855713
1.781224	2690.103760
1.781302	2705.462158
1.781381	2633.939209
1.781459	2748.009033
1.781538	2585.706543
1.781616	2589.230957
1.781695	2805.857178
1.781773	2746.213135
1.781852	2769.434814
1.781931	2662.482910
1.782009	2673.879150
1.782088	2768.077148
1.782166	2834.647217
1.782245	2731.696045
1.782324	2739.132324
1.782402	2817.495850
1.782481	2757.936768
1.782560	2765.364746
1.782638	2764.912842
1.782717	2760.523193
1.782796	2791.571045
1.782875	2680.887451
1.782953	2774.914795
1.783032	2955.490234
1.783111	2880.246826
1.783190	2899.447021
1.783268	2714.100098
1.783347	2847.373047
1.783426	2803.654053
1.783505	2877.895508
1.783584	2700.534668
1.783663	2963.421631
1.783742	2856.837646
1.783820	2891.731934
1.783899	2800.907959
1.783978	2933.992432
1.784057	2917.804932
1.784136	2897.696533
1.784215	2889.371826
1.784294	2924.226318
1.784373	2947.295898
1.784452	2993.900879
1.784531	2903.178223
1.784610	2965.465332
1.784689	2964.981201
1.784768	2905.677979
1.784847	3050.267822
1.784926	2940.009521
1.785005	2947.368164
1.785084	2962.562012
1.785164	3036.522217
1.785243	3036.026611
1.785322	2941.527588
1.785401	3144.688721
1.785480	2940.567627
1.785559	2936.172852
1.785638	3115.749512
1.785718	2899.991943
1.785797	3138.210449
1.785876	2957.730713
1.785955	3109.804443
1.786035	3027.164551
1.786114	3120.520996
1.786193	3088.733398
1.786273	3096.047852
1.786352	3005.646973
1.786431	3247.444824
1.786510	3082.811035
1.786590	3156.533447
1.786669	2991.968018
1.786748	3378.107422
1.786828	3147.179688
1.786907	3099.817627
1.786987	3075.891357
1.787066	3192.473145
1.787146	3211.463135
1.787225	3074.386475
1.787304	3085.587646
1.787384	2987.578613
1.787463	3185.970947
1.787543	3177.653320
1.787622	3145.948486
1.787702	3238.979980
1.787781	3195.584229
1.787861	3253.509277
1.787941	3050.398193
1.788020	3213.496826
1.788100	3263.601563
1.788179	3294.220459
1.788259	3208.031982
1.788339	3265.898193
1.788418	3343.205078
1.788498	3327.094727
1.788578	3217.612549
1.788657	3131.506348
1.788737	3243.789551
1.788817	3321.036865
1.788896	3301.054688
1.788976	3343.279297
1.789056	3315.526123
1.789136	3318.872070
1.789215	3271.703369
1.789295	3240.090088
1.789375	3356.093018
1.789455	3277.871338
1.789535	3343.349854
1.789614	3253.508301
1.789694	3361.669434
1.789774	3396.052490
1.789854	3508.035400
1.789934	3263.027832
1.790014	3565.081787
1.790094	3471.412842
1.790174	3463.091064
1.790254	3404.365723
1.790334	3368.919922
1.790413	3387.751709
1.790493	3503.465332
1.790573	3433.146484
1.790653	3467.455566
1.790734	3548.236572
1.790814	3431.468994
1.790894	3430.909912
1.790974	3600.707031
1.791054	3491.729736
1.791134	3460.197266
1.791214	3502.201904
1.791294	3451.331787
1.791374	3578.432617
1.791454	3562.377930
1.791534	3615.940186
1.791615	3503.217285
1.791695	3371.200928
1.791775	3455.691162
1.791855	3636.773926
1.791935	3640.045898
1.792016	3666.497803
1.792096	3723.844482
1.792176	3564.884521
1.792256	3645.398682
1.792337	3617.777832
1.792417	3474.354248
1.792497	3516.246094
1.792578	3608.292725
1.792658	3700.309570
1.792738	3614.833740
1.792819	3672.104004
1.792899	3524.954346
1.792979	3609.212402
1.793060	3758.984375
1.793140	3715.970215
1.793221	3834.842773
1.793301	3710.906982
1.793381	3779.654541
1.793462	3806.004883
1.793542	3751.462891
1.793623	3766.256104
1.793703	3873.453125
1.793784	3780.429199
1.793864	3741.322998
1.793945	3867.713623
1.794026	3697.779053
1.794106	3743.343750
1.794187	3808.126709
1.794267	3834.428711
1.794348	3756.897949
1.794428	3863.938721
1.794509	3805.648682
1.794590	3678.195068
1.794670	3716.024902
1.794751	3869.108887
1.794832	3949.152832
1.794912	3814.076416
1.794993	3836.498047
1.795074	3762.919189
1.795155	3816.054199
1.795235	3930.587402
1.795316	4018.218262
1.795397	3994.541260
1.795478	3928.669434
1.795559	4096.812988
1.795639	4042.451660
1.795720	3777.198486
1.795801	3887.772949
1.795882	3975.310547
1.795963	3821.349854
1.796044	3924.198486
1.796125	3988.697510
1.796205	3930.584229
1.796286	3972.078857
1.796367	4082.495117
1.796448	4062.685547
1.796529	4008.426025
1.796610	3965.667725
1.796691	4171.693848
1.796772	4086.830078
1.796853	4174.163574
1.796934	4062.548828
1.797015	4176.630859
1.797096	4003.865723
1.797177	4114.096680
1.797258	4040.792725
1.797340	4135.692383
1.797421	4039.479004
1.797502	4119.063965
1.797583	4225.365234
1.797664	4136.823730
1.797745	4162.885254
1.797826	4162.208496
1.797908	4367.699707
1.797989	4179.941895
1.798070	4152.545898
1.798151	4224.375977
1.798232	4322.890625
1.798314	4196.298828
1.798395	4252.830078
1.798476	4198.748535
1.798558	4259.073730
1.798639	4288.879883
1.798720	4223.383789
1.798802	4337.030273
1.798883	4317.273438
1.798964	4278.473145
1.799046	4399.673340
1.799127	4387.532715
1.799208	4352.547852
1.799290	4378.492188
1.799371	4431.075195
1.799453	4274.303223
1.799534	4543.801270
1.799616	4352.817871
1.799697	4458.630371
1.799778	4347.599609
1.799860	4407.742188
1.799942	4353.791992
1.800023	4524.166504
1.800105	4458.811035
1.800186	4591.107422
1.800268	4464.962402
1.800349	4551.622559
1.800431	4486.304688
1.800513	4580.528809
1.800594	4526.619629
1.800676	4567.650391
1.800757	4502.371582
1.800839	4459.888184
1.800921	4497.114258
1.801003	4519.150391
1.801084	4544.973145
1.801166	4684.582520
1.801248	4623.140625
1.801329	4702.020996
1.801411	4439.655273
1.801493	4586.772461
1.801575	4665.619629
1.801656	4642.125000
1.801738	4652.737793
1.801820	4686.076660
1.801902	4749.706055
1.801984	4623.962891
1.802066	4668.648926
1.802148	4811.751465
1.802229	4670.918457
1.802311	4704.221191
1.802393	4847.247559
1.802475	4611.893555
1.802557	4830.542969
1.802639	4629.306641
1.802721	4802.504395
1.802803	4726.106934
1.802885	4827.407227
1.802967	4724.572754
1.803049	4822.061035
1.803131	4964.858398
1.803213	4914.940918
1.803295	4774.386719
1.803377	4818.930664
1.803459	5074.915039
1.803541	4798.489746
1.803623	4858.106934
1.803706	4827.125488
1.803788	4924.454102
1.803870	4976.475586
1.803952	5081.292480
1.804034	4839.079590
1.804116	5147.522949
1.804199	4954.393555
1.804281	4938.510254
1.804363	5016.862793
1.804445	4884.146973
1.804528	5030.307129
1.804610	5086.001953
1.804692	4957.105469
1.804775	4986.430664
1.804857	5027.042969
1.804939	4969.752930
1.805022	5123.285156
1.805104	5050.942871
1.805186	5230.753906
1.805269	5086.929688
1.805351	5010.866211
1.805434	5092.801758
1.805516	5065.650879
1.805598	5136.270508
1.805681	5135.437500
1.805763	5284.958984
1.805846	5178.870605
1.805928	5249.425781
1.806011	5083.264648
1.806093	5356.659180
1.806176	5228.092773
1.806258	5204.713379
1.806341	5271.452148
1.806423	5263.089355
1.806506	5344.810059
1.806589	5257.629395
1.806671	5354.333008
1.806754	5188.396484
1.806836	5165.049316
1.806919	5295.473633
1.807002	5298.364746
1.807084	5241.268555
1.807167	5270.406738
1.807250	5179.602539
1.807333	5373.622070
1.807415	5324.043945
1.807498	5465.531738
1.807581	5547.045898
1.807664	5553.636230
1.807746	5384.244141
1.807829	5413.320313
1.807912	5569.650879
1.807995	5332.974121
1.808078	5406.946289
1.808160	5462.187988
1.808243	5539.855469
1.808326	5482.857422
1.808409	5523.102051
1.808492	5589.504883
1.808575	5446.547852
1.808658	5453.140137
1.808741	5571.839355
1.808824	5604.563965
1.808907	5480.375000
1.808990	5472.016113
1.809073	5594.370117
1.809156	5642.004395
1.809239	5473.089355
1.809322	5625.245117
1.809405	5713.904785
1.809488	5780.145996
1.809571	5648.626953
1.809654	5729.778809
1.809737	5616.958496
1.809820	5813.691406
1.809903	5771.735840
1.809987	5819.263184
1.810070	5661.773438
1.810153	5713.029785
1.810236	5633.856445
1.810319	5550.982422
1.810403	5918.847168
1.810486	5787.538086
1.810569	5823.837402
1.810652	5718.647461
1.810735	5874.064941
1.810819	5817.285156
1.810902	5764.245117
1.810985	5863.769043
1.811069	5818.178223
1.811152	5798.638672
1.811235	5965.047852
1.811319	5982.672852
1.811402	5966.833008
1.811486	5806.033203
1.811569	5831.107910
1.811652	5989.944824
1.811736	6126.438477
1.811819	6073.441406
1.811903	5998.176758
1.811986	6208.871094
1.812070	5973.957031
1.812153	6058.370605
1.812237	6053.677734
1.812320	5896.833984
1.812404	6092.531738
1.812487	6124.933594
1.812571	5964.444824
1.812654	6007.982422
1.812738	6066.337891
1.812822	6098.722656
1.812905	6012.478027
1.812989	6089.334961
1.813072	6184.695313
1.813156	6083.658203
1.813240	5915.973633
1.813323	6152.061035
1.813407	6284.380859
1.813491	6264.850586
1.813575	6156.477051
1.813658	6314.642090
1.813742	6361.730469
1.813826	6434.705078
1.813910	6455.860840
1.813993	6310.553223
1.814077	6357.611328
1.814161	6245.646973
1.814245	6248.333008
1.814329	6299.074707
1.814413	6346.103516
1.814497	6393.117188
1.814580	6340.354492
1.814664	6439.072754
1.814748	6478.660645
1.814832	6355.741211
1.814916	6280.863281
1.815000	6412.753418
1.815084	6415.406738
1.815168	6514.016113
1.815252	6424.400391
1.815336	6578.317871
1.815420	6706.363770
1.815504	6657.331055
1.815588	6486.620605
1.815672	6570.373535
1.815756	6624.607422
1.815840	6575.618652
1.815925	6449.254883
1.816009	6691.400879
1.816093	6624.004395
1.816177	6468.225098
1.816261	6585.031738
1.816345	6653.929688
1.816429	6656.534668
1.816514	6489.807617
1.816598	6536.604004
1.816682	6616.504883
1.816766	6740.531738
1.816851	6724.726074
1.816935	6719.959961
1.817019	6763.002930
1.817104	6673.662109
1.817188	6801.254883
1.817272	6877.345215
1.817356	6924.009766
1.817441	6706.089844
1.817525	6642.547363
1.817610	6748.000977
1.817694	6937.894531
1.817778	6771.523438
1.817863	6843.859863
1.817947	6894.146973
1.818032	6940.747070
1.818116	6976.322266
1.818201	6953.178711
1.818285	6838.326172
1.818370	6910.581055
1.818454	6902.128418
1.818539	6798.340332
1.818623	7072.209961
1.818708	6939.102051
1.818792	6963.635254
1.818877	7039.462891
1.818961	6840.474609
1.819046	6996.890137
1.819131	6981.107910
1.819215	7042.234375
1.819300	6997.157715
1.819385	7127.819336
1.819469	7276.740234
1.819554	7154.791992
1.819639	7131.680176
1.819723	7211.015137
1.819808	7103.768066
1.819893	7168.452148
1.819978	7170.949707
1.820063	7023.542480
1.820147	7157.664063
1.820232	7306.362305
1.820317	7301.526367
1.820402	7241.884766
1.820487	7525.666016
1.820571	7254.153320
1.820656	7263.937012
1.820741	7474.547363
1.820826	7458.735352
1.820911	7362.622070
1.820996	7361.432129
1.821081	7418.627441
1.821166	7304.324219
1.821251	7328.678711
1.821336	7491.624023
1.821421	7373.717285
1.821506	7168.340820
1.821591	7229.156738
1.821676	7366.497070
1.821761	7514.726074
1.821846	7582.743652
1.821931	7483.151367
1.822016	7325.309082
1.822101	7411.533691
1.822186	7432.184570
1.822272	7522.004883
1.822357	7688.241211
1.822442	7628.763672
1.822527	7645.726074
1.822612	7480.757813
1.822697	7523.203613
1.822783	7594.734375
1.822868	7528.045898
1.822953	7657.730469
1.823038	7700.119629
1.823124	7724.320313
1.823209	7603.137207
1.823294	7743.626953
1.823380	7811.406250
1.823465	7842.837891
1.823550	7725.345215
1.823636	7876.617676
1.823721	7592.137695
1.823806	7696.188965
1.823892	7676.796875
1.823977	7693.702148
1.824063	7960.969238
1.824148	7651.308594
1.824233	7755.265625
1.824319	7732.251953
1.824404	7611.338867
1.824490	7816.767578
1.824575	7960.504883
1.824661	7922.974609
1.824746	7613.668945
1.824832	7938.531250
1.824918	7955.361816
1.825003	7925.100098
1.825089	7996.249512
1.825174	7882.709961
1.825260	7939.361328
1.825346	7789.669922
1.825431	7994.703125
1.825517	7946.370117
1.825603	7981.266602
1.825688	7951.038086
1.825774	7844.866211
1.825860	8060.572754
1.825945	7936.338867
1.826031	8148.345215
1.826117	8045.824219
1.826203	8246.902344
1.826288	8003.478516
1.826374	8121.405762
1.826460	8008.117676
1.826546	8097.113281
1.826632	8077.750977
1.826717	8271.407227
1.826803	8053.482910
1.826889	8294.000977
1.826975	8090.577148
1.827061	8374.307617
1.827147	8138.468750
1.827233	8194.865234
1.827319	8229.604492
1.827405	8069.623535
1.827491	8360.337891
1.827577	8160.736328
1.827663	8101.754883
1.827749	8496.820313
1.827835	8272.074219
1.827921	8501.281250
1.828007	8229.784180
1.828093	8282.471680
1.828179	8248.730469
1.828265	8412.994141
1.828351	8411.635742
1.828438	8518.240234
1.828524	8473.686523
1.828610	8483.111328
1.828696	8294.697266
1.828782	8624.229492
1.828868	8511.366211
1.828955	8452.467773
1.829041	8267.774414
1.829127	8676.166992
1.829213	8502.277344
1.829300	8303.292969
1.829386	8463.608398
1.829472	8620.281250
1.829558	8389.052734
1.829645	8574.410156
1.829731	8497.635742
1.829818	8442.421875
1.829904	8584.614258
1.829990	8676.524414
1.830077	8754.053711
1.830163	8508.714844
1.830250	8754.814453
1.830336	8688.853516
1.830422	8673.110352
1.830509	8531.901367
1.830595	8684.647461
1.830682	8758.502930
1.830768	8635.263672
1.830855	8572.967773
1.830941	8675.459961
1.831028	8613.176758
1.831115	8747.856445
1.831201	8721.382813
1.831288	8920.434570
1.831374	8804.465820
1.831461	8860.299805
1.831547	8744.377930
1.831634	8921.832031
1.831721	8616.370117
1.831807	8969.019531
1.831894	8831.700195
1.831981	8572.874023
1.832068	8975.401367
1.832154	9059.725586
1.832241	8765.254883
1.832328	8760.267578
1.832415	9019.619141
1.832501	8996.734375
1.832588	8898.867188
1.832675	8915.283203
1.832762	9006.660156
1.832849	8937.390625
1.832936	8875.281250
1.833022	9109.343750
1.833109	9179.224609
1.833196	8899.521484
1.833283	9172.696289
1.833370	9017.887695
1.833457	9183.998047
1.833544	8947.250000
1.833631	9063.419922
1.833718	9001.378906
1.833805	9106.814453
1.833892	9083.970703
1.833979	9139.493164
1.834066	9063.234375
1.834153	9125.863281
1.834240	9234.751953
1.834327	9190.548828
1.834414	9231.773438
1.834501	9411.758789
1.834589	9356.874023
1.834676	9326.907227
1.834763	8994.638672
1.834850	9345.234375
1.834937	9229.953125
1.835024	9196.469727
1.835111	9148.781250
1.835199	9381.851563
1.835286	9213.339844
1.835373	9481.850586
1.835461	9135.775391
1.835548	9311.874023
1.835635	9502.119141
1.835722	9333.722656
1.835810	9392.562500
1.835897	9202.942383
1.835984	9258.235352
1.836072	9469.623047
1.836159	9358.125000
1.836246	9083.507813
1.836334	9330.283203
1.836421	9296.867188
1.836509	9394.631836
1.836596	9449.830078
1.836684	9487.290039
1.836771	9269.610352
1.836859	9498.401367
1.836946	9496.870117
1.837034	9445.754883
1.837121	9422.984375
1.837209	9570.168945
1.837296	9504.906250
1.837384	9528.149414
1.837471	9268.276367
1.837559	9475.541016
1.837647	9442.172852
1.837734	9613.970703
1.837822	9601.811523
1.837910	9483.574219
1.837997	9662.352539
1.838085	9370.935547
1.838173	9510.796875
1.838260	9364.380859
1.838348	9613.724609
1.838436	9711.087891
1.838524	9868.462891
1.838611	9683.236328
1.838699	9572.217773
1.838787	9524.780273
1.838875	9650.315430
1.838963	9807.572266
1.839051	9601.332031
1.839138	9695.041016
1.839226	9608.819336
1.839314	9843.572266
1.839402	9711.511719
1.839490	9794.564453
1.839578	9606.150391
1.839666	9950.014648
1.839754	9736.966797
1.839842	9749.491211
1.839930	9659.846680
1.840018	9739.303711
1.840106	9762.386719
1.840194	9743.207031
1.840282	9731.074219
1.840370	9810.467773
1.840458	9907.432617
1.840546	9747.483398
1.840634	9742.393555
1.840722	9881.536133
1.840810	10041.736328
1.840898	9804.500000
1.840987	9750.178711
1.841075	9913.837891
1.841163	9676.736328
1.841251	9741.950195
1.841339	9779.032227
1.841428	10142.837891
1.841516	9905.850586
1.841604	10150.104492
1.841692	9835.938477
1.841781	10069.590820
1.841869	10046.905273
1.841957	10055.816406
1.842046	9899.785156
1.842134	9866.611328
1.842222	10110.593750
1.842311	9898.507813
1.842399	9872.363281
1.842487	10074.148438
1.842576	10076.031250
1.842664	9965.741211
1.842753	10262.042969
1.842841	10113.210938
1.842930	10304.283203
1.843018	10085.430664
1.843107	10024.262695
1.843195	10040.157227
1.843284	9894.981445
1.843372	10036.921875
1.843461	9947.796875
1.843549	10215.672852
1.843638	9839.617188
1.843726	9995.467773
1.843815	10242.217773
1.843904	10146.135742
1.843992	10193.457031
1.844081	10191.815430
1.844170	10326.507813
1.844258	10275.911133
1.844347	10358.126953
1.844436	10318.023438
1.844525	10173.126953
1.844613	10119.092773
1.844702	10340.976563
1.844791	10231.063477
1.844880	10191.010742
1.844968	10325.506836
1.845057	10316.863281
1.845146	10510.617188
1.845235	10236.780273
1.845324	10287.458008
1.845412	10495.074219
1.845501	10455.023438
1.845590	10188.344727
1.845679	10347.068359
1.845768	10488.313477
1.845857	10148.570313
1.845946	10300.254883
1.846035	10410.082031
1.846124	10258.619141
1.846213	10354.486328
1.846302	10398.087891
1.846391	10466.046875
1.846480	10363.407227
1.846569	10225.995117
1.846658	10443.589844
1.846747	10215.742188
1.846836	10168.870117
1.846925	10212.451172
1.847015	10259.495117
1.847104	10393.455078
1.847193	10231.853516
1.847282	10553.484375
1.847371	10332.824219
1.847460	10279.035156
1.847550	10412.882813
1.847639	10143.716797
1.847728	10475.521484
1.847817	10307.142578
1.847907	10291.593750
1.847996	10435.744141
1.848085	10180.674805
1.848175	10446.265625
1.848264	10437.642578
1.848353	10408.207031
1.848442	10486.313477
1.848532	10529.712891
1.848621	10521.081055
1.848711	10585.263672
1.848800	10604.358398
1.848889	10432.813477
1.848979	10528.167969
1.849068	10394.804688
1.849158	10455.489258
1.849247	10526.545898
1.849337	10666.844727
1.849426	10446.976563
1.849516	10365.664063
1.849605	10616.691406
1.849695	10528.456055
1.849785	10744.770508
1.849874	10670.381836
1.849964	10571.801758
1.850053	10549.346680
1.850143	10748.225586
1.850233	10625.475586
1.850322	10554.622070
1.850412	10743.034180
1.850502	10661.816406
1.850591	10421.671875
1.850681	10610.013672
1.850771	10570.307617
1.850861	10679.126953
1.850950	10660.141602
1.851040	10668.783203
1.851130	10642.900391
1.851220	10661.896484
1.851310	10739.552734
1.851399	10668.814453
1.851489	10556.700195
1.851579	10675.727539
1.851669	10622.276367
1.851759	10717.117188
1.851849	10511.978516
1.851939	10427.554688
1.852029	10594.757813
1.852119	10517.239258
1.852208	10415.627930
1.852298	10493.183594
1.852389	10625.824219
1.852479	10737.758789
1.852569	10767.019531
1.852659	10510.527344
1.852749	10756.667969
1.852839	10823.768555
1.852929	10742.881836
1.853019	10713.628906
1.853109	10753.183594
1.853199	10706.740234
1.853289	10811.620117
1.853379	10424.794922
1.853470	10667.193359
1.853560	10675.787109
1.853650	10746.237305
1.853740	10706.710938
1.853830	10856.149414
1.853921	10651.740234
1.854011	10584.772461
1.854101	10703.251953
1.854191	10629.430664
1.854282	10778.759766
1.854372	10770.160156
1.854462	10624.297852
1.854553	10790.709961
1.854643	10644.891602
1.854733	10886.706055
1.854824	10970.688477
1.854914	10855.770508
1.855004	10634.611328
1.855095	10913.975586
1.855185	10610.625000
1.855276	10711.716797
1.855366	10658.600586
1.855457	10554.118164
1.855547	10761.344727
1.855638	10677.425781
1.855728	10730.489258
1.855819	10684.258789
1.855909	10470.326172
1.856000	10769.797852
1.856091	10891.246094
1.856181	10803.963867
1.856272	10685.924805
1.856362	10629.484375
1.856453	10915.010742
1.856544	10773.078125
1.856634	10692.720703
1.856725	10595.300781
1.856816	10651.689453
1.856907	10571.389648
1.856997	10617.514648
1.857088	10742.184570
1.857179	10658.494141
1.857270	10690.923828
1.857360	10743.827148
1.857451	10817.193359
1.857542	10986.097656
1.857633	10677.218750
1.857724	10880.208008
1.857815	10762.474609
1.857905	10951.741211
1.857996	10550.992188
1.858087	10719.773438
1.858178	10782.820313
1.858269	10815.169922
1.858360	10745.270508
1.858451	10855.986328
1.858542	10605.538086
1.858633	10815.022461
1.858724	10881.397461
1.858815	10668.523438
1.858906	10854.063477
1.858997	10801.254883
1.859088	10932.255859
1.859179	10811.390625
1.859270	10700.771484
1.859362	10651.422852
1.859453	10785.763672
1.859544	10590.181641
1.859635	10741.490234
1.859726	10794.157227
1.859817	10605.464844
1.859909	10678.528320
1.860000	10581.663086
1.860091	10348.927734
1.860182	10669.977539
1.860273	10569.763672
1.860365	10530.708008
1.860456	10698.781250
1.860547	10669.901367
1.860639	10586.721680
1.860730	10622.349609
1.860821	10790.298828
1.860913	10679.999023
1.861004	10688.456055
1.861096	10700.302734
1.861187	10491.730469
1.861278	10469.700195
1.861370	10637.509766
1.861461	10578.179688
1.861553	10634.086914
1.861644	10625.599609
1.861736	10593.400391
1.861827	10628.955078
1.861919	10637.405273
1.862010	10645.851563
1.862102	10620.440430
1.862193	10831.986328
1.862285	10633.945313
1.862376	10571.324219
1.862468	10501.956055
1.862560	10649.110352
1.862651	10704.895508
1.862743	10578.048828
1.862835	10522.248047
1.862926	10733.536133
1.863018	10430.980469
1.863110	10527.309570
1.863201	10724.977539
1.863293	10284.050781
1.863385	10495.206055
1.863477	10490.139648
1.863569	10491.829102
1.863660	10493.517578
1.863752	10559.344727
1.863844	10328.131836
1.863936	10623.440430
1.864028	10446.277344
1.864120	10373.750977
1.864212	10456.408203
1.864303	10495.196289
1.864395	10500.250977
1.864487	10356.962891
1.864579	10365.409180
1.864671	10555.850586
1.864763	10385.663086
1.864855	10650.162109
1.864947	10510.332031
1.865039	10306.552734
1.865131	10463.171875
1.865223	10444.653320
1.865315	10473.272461
1.865408	10424.463867
1.865500	10476.633789
1.865592	10343.716797
1.865684	10432.890625
1.865776	10626.314453
1.865868	10550.613281
1.865960	10491.749023
1.866053	10234.534180
1.866145	10132.038086
1.866237	10459.797852
1.866329	10333.773438
1.866421	10295.151367
1.866514	10108.722656
1.866606	10473.222656
1.866698	10360.710938
1.866791	10271.739258
1.866883	10125.721680
1.866975	10419.490234
1.867068	10105.682617
1.867160	10352.379883
1.867252	10142.694336
1.867345	10302.084961
1.867437	10149.494141
1.867530	10245.114258
1.867622	10159.640625
1.867715	10261.933594
1.867807	10374.249023
1.867900	10258.632813
1.867992	10518.349609
1.868085	10181.625977
1.868177	10153.189453
1.868270	10255.382813
1.868362	10257.082031
1.868455	10211.906250
1.868547	10223.654297
1.868640	10017.836914
1.868733	10263.871094
1.868825	9974.462891
1.868918	10471.333984
1.869011	10161.916016
1.869103	10143.559570
1.869196	10151.958984
1.869289	10157.012695
1.869381	9994.925781
1.869474	9976.606445
1.869567	10112.012695
1.869660	10207.280273
1.869752	10158.869141
1.869845	10040.332031
1.869938	9968.585938
1.870031	9916.897461
1.870124	9898.610352
1.870216	9887.003906
1.870309	9968.849609
1.870402	9947.224609
1.870495	9812.170898
1.870588	10024.084961
1.870681	10069.166016
1.870774	9937.492188
1.870867	10149.282227
1.870960	10017.636719
1.871053	9976.028320
1.871146	9951.095703
1.871239	9892.850586
1.871332	9814.634766
1.871425	9849.697266
1.871518	10074.583008
1.871611	9809.900391
1.871704	9741.735352
1.871797	9943.227539
1.871891	9954.941406
1.871984	9906.750977
1.872077	10028.265625
1.872170	9883.604492
1.872263	9895.320313
1.872356	9774.005859
1.872450	9805.684570
1.872543	9750.915039
1.872636	9799.207031
1.872729	9654.721680
1.872823	9809.347656
1.872916	9824.381836
1.873009	9756.364258
1.873103	9611.977539
1.873196	9720.018555
1.873289	9615.526367
1.873383	9534.305664
1.873476	9612.433594
1.873569	9760.228516
1.873663	9629.250977
1.873756	9840.029297
1.873850	9612.885742
1.873943	9458.779297
1.874037	9679.430664
1.874130	9528.677734
1.874224	9547.034180
1.874317	9581.958008
1.874411	9424.665039
1.874504	9612.009766
1.874598	9491.202148
1.874691	9589.044922
1.874785	9484.837891
1.874879	9486.624023
1.874972	9564.554688
1.875066	9423.990234
1.875160	9491.976563
1.875253	9437.504883
1.875347	9356.582031
1.875441	9044.124023
1.875534	9505.717773
1.875628	9666.229492
1.875722	9413.386719
1.875816	9335.837891
1.875909	9327.725586
1.876003	9534.429688
1.876097	9314.812500
1.876191	9283.581055
1.876285	9225.932617
1.876378	9273.990234
1.876472	9384.772461
1.876566	9393.167969
1.876660	9134.170898
1.876754	9136.002930
1.876848	9236.834961
1.876942	9271.644531
1.877036	9385.618164
1.877130	9430.287109
1.877224	8940.677734
1.877318	9094.216797
1.877412	9138.911133
1.877506	9114.367188
1.877600	9313.945313
1.877694	9302.561523
1.877788	9004.539063
1.877882	9213.919922
1.877976	9429.822266
1.878070	9141.800781
1.878165	8903.261719
1.878259	8898.538086
1.878353	8808.234375
1.878447	8862.765625
1.878541	9045.609375
1.878635	9080.344727
1.878730	8717.044922
1.878824	9041.246094
1.878918	8954.293945
1.879012	8844.354492
1.879107	8892.242188
1.879201	8818.502930
1.879295	8774.363281
1.879390	8733.522461
1.879484	8833.959961
1.879578	8786.553711
1.879673	8844.255859
1.879767	8967.612305
1.879862	8877.526367
1.879956	8882.664063
1.880050	8766.363281
1.880145	8643.537109
1.880239	8711.047852
1.880334	8781.817383
1.880428	8898.483398
1.880523	8664.213867
1.880617	8807.091797
1.880712	8812.232422
1.880807	8660.035156
1.880901	8734.020508
1.880996	8758.830078
1.881090	8583.780273
1.881185	8782.219727
1.881280	8613.771484
1.881374	8632.035156
1.881469	8509.502930
1.881564	8576.880859
1.881658	8578.774414
1.881753	8655.936523
1.881848	8435.318359
1.881943	8584.451172
1.882037	8458.773438
1.882132	8339.676758
1.882227	8302.366211
1.882322	8523.351563
1.882416	8551.400391
1.882511	8435.632813
1.882606	8509.436523
1.882701	8383.910156
1.882796	8477.298828
1.882891	8322.421875
1.882986	8200.250977
1.883081	8492.801758
1.883176	8383.701172
1.883271	8310.541992
1.883365	8361.422852
1.883461	8285.027344
1.883555	8211.917969
1.883650	8155.142578
1.883746	8199.493164
1.883841	7969.903809
1.883936	8121.864746
1.884031	8127.078613
1.884126	8197.479492
1.884221	8059.287109
1.884316	8054.732422
1.884411	8261.940430
1.884506	8201.979492
1.884602	8001.995117
1.884697	8160.266602
1.884792	8031.979492
1.884887	8190.194824
1.884982	7882.934082
1.885078	8050.884766
1.885173	8039.829102
1.885268	8123.118164
1.885363	7842.085938
1.885459	7957.900879
1.885554	7953.369629
1.885649	7783.035645
1.885745	8002.820313
1.885840	8024.283691
1.885936	7857.269043
1.886031	7820.267090
1.886126	7793.021973
1.886222	7850.231445
1.886317	7689.846191
1.886413	7847.706543
1.886508	7849.690918
1.886604	7738.070313
1.886699	7678.410645
1.886795	7771.274902
1.886890	7714.872559
1.886986	7593.613281
1.887082	7641.040527
1.887177	7727.364746
1.887273	7586.708008
1.887368	7886.962891
1.887464	7675.020508
1.887560	7589.529785
1.887655	7212.458008
1.887751	7535.255859
1.887847	7715.431641
1.887942	7490.731934
1.888038	7586.667480
1.888134	7507.747559
1.888230	7377.061523
1.888325	7498.860352
1.888421	7429.700195
1.888517	7473.800781
1.888613	7446.720215
1.888709	7342.022461
1.888804	7366.712891
1.888900	7439.894531
1.888996	7416.068359
1.889092	7282.352051
1.889188	7413.683594
1.889284	7247.697754
1.889380	7482.375488
1.889476	7300.280273
1.889572	7137.621582
1.889668	7065.432129
1.889764	7232.186035
1.889860	7218.110352
1.889956	7268.591309
1.890052	7270.649414
1.890148	7146.870605
1.890244	7294.119629
1.890340	7202.631836
1.890436	7014.421875
1.890532	6987.498047
1.890628	7118.557617
1.890725	7017.485352
1.890821	7241.963379
1.890917	7089.344727
1.891013	7049.541504
1.891109	7093.507324
1.891206	7008.624023
1.891302	7046.141113
1.891398	7206.000000
1.891495	7072.848633
1.891591	6965.490723
1.891687	7083.447266
1.891783	6866.717773
1.891880	6810.919922
1.891976	6944.927246
1.892072	6927.729492
1.892169	6823.712891
1.892265	6967.298828
1.892362	6827.947754
1.892458	6984.342773
1.892555	6793.615234
1.892651	6863.211426
1.892748	6942.422363
1.892844	6767.853516
1.892941	6705.745605
1.893037	6862.008301
1.893134	6806.325684
1.893230	6586.950195
1.893327	6739.946777
1.893423	6668.265137
1.893520	6593.397949
1.893616	6733.487793
1.893713	6565.618164
1.893810	6494.009766
1.893906	6720.620117
1.894003	6700.304199
1.894100	6561.395508
1.894197	6515.472168
1.894293	6527.241699
1.894390	6564.637695
1.894487	6464.279297
1.894584	6556.120605
1.894680	6510.234375
1.894777	6666.073730
1.894874	6469.725586
1.894971	6519.896973
1.895068	6406.840332
1.895165	6588.193359
1.895262	6465.564453
1.895358	6381.358887
1.895455	6479.475586
1.895552	6344.132324
1.895649	6496.574219
1.895746	6303.732422
1.895843	6369.836914
1.895940	6413.550781
1.896037	6291.105957
1.896134	6401.903809
1.896231	6359.351563
1.896328	6313.619141
1.896425	6347.727051
1.896523	6397.786133
1.896620	6249.925781
1.896717	6309.558594
1.896814	6152.186035
1.896911	6237.338867
1.897008	6312.894531
1.897105	6353.341797
1.897203	6282.163574
1.897300	6207.819824
1.897397	6210.009277
1.897494	6065.578613
1.897591	6262.188477
1.897689	6136.913574
1.897786	6113.625488
1.897883	6322.874023
1.897981	6051.147461
1.898078	6015.146973
1.898175	6049.201172
1.898273	6035.495117
1.898370	6072.717285
1.898468	6138.567871
1.898565	5994.402344
1.898662	6133.412109
1.898760	5995.654785
1.898857	5966.068359
1.898955	6168.609375
1.899052	6034.091309
1.899150	5794.720215
1.899247	5885.955078
1.899345	5843.698730
1.899442	5982.552734
1.899540	5921.234375
1.899638	5697.954102
1.899735	5992.368652
1.899833	5889.801758
1.899930	5806.315430
1.900028	5951.388672
1.900126	5906.001465
1.900223	5847.936523
1.900321	5735.956543
1.900419	5849.227051
1.900517	5753.140625
1.900614	5669.769043
1.900712	5678.368652
1.900810	5747.194824
1.900908	5663.863770
1.901006	5723.163086
1.901103	5750.758789
1.901201	5600.939941
1.901299	5856.601563
1.901397	5697.312988
1.901495	5655.232910
1.901593	5562.511719
1.901691	5697.729492
1.901789	5690.482910
1.901887	5752.854980
1.901984	5577.916504
1.902083	5450.484375
1.902181	5579.284668
1.902279	5496.166016
1.902377	5498.443848
1.902475	5446.978027
1.902573	5600.981934
1.902671	5492.630371
1.902769	5498.066406
1.902867	5440.314453
1.902965	5600.537598
1.903063	5504.888184
1.903161	5434.531250
1.903260	5550.476074
1.903358	5366.491211
1.903456	5315.127930
1.903554	5582.510742
1.903653	5436.471680
1.903751	5271.551270
1.903849	5400.026367
1.903947	5254.086914
1.904045	5284.773438
1.904144	5321.755859
1.904242	5188.507324
1.904341	5247.554688
1.904439	5101.756348
1.904537	5299.427734
1.904636	5418.281250
1.904734	5291.423340
1.904832	5237.036621
1.904931	5327.504395
1.905029	5260.536621
1.905128	5240.804199
1.905226	5177.018555
1.905325	5173.039063
1.905423	4983.439941
1.905522	5331.800293
1.905620	5233.444824
1.905719	5323.795898
1.905818	5175.166992
1.905916	5155.473145
1.906015	5201.789551
1.906114	5125.530762
1.906212	5061.864746
1.906311	5105.032227
1.906410	5063.377441
1.906508	5084.546387
1.906607	5124.548828
1.906706	5183.375488
1.906804	4987.921387
1.906903	5031.058105
1.907002	5124.389160
1.907101	4819.225586
1.907200	4931.382813
1.907298	4911.770020
1.907397	4976.835938
1.907496	4869.428223
1.907595	5003.449219
1.907694	4943.088867
1.907793	4857.675781
1.907892	4941.498047
1.907991	4837.314941
1.908090	4917.980957
1.908188	4867.078125
1.908288	4900.740723
1.908386	4818.547363
1.908486	4733.249512
1.908584	4942.194824
1.908684	4631.583984
1.908783	4821.704102
1.908882	4892.882324
1.908981	4957.781738
1.909080	4778.720215
1.909179	4862.378418
1.909278	4830.331543
1.909377	5010.857910
1.909477	4778.770508
1.909576	4881.123535
1.909675	4499.159180
1.909774	4614.020020
1.909873	4756.954590
1.909973	4724.959961
1.910072	4621.160156
1.910171	4695.342285
1.910271	4719.557617
1.910370	4725.040039
1.910469	4640.028809
1.910568	4611.203125
1.910668	4694.684570
1.910767	4578.530273
1.910867	4674.463379
1.910966	4658.121582
1.911065	4573.202637
1.911165	4690.907715
1.911264	4565.497559
1.911364	4486.866211
1.911463	4461.220703
1.911563	4494.766602
1.911662	4627.960938
1.911762	4530.686035
1.911862	4536.183594
1.911961	4460.744629
1.912061	4581.409180
1.912160	4593.119141
1.912260	4505.261719
1.912359	4544.978027
1.912459	4457.156250
1.912559	4325.824219
1.912659	4505.471191
1.912758	4346.193848
1.912858	4438.745117
1.912958	4469.109375
1.913057	4446.638672
1.913157	4402.426758
1.913257	4305.420898
1.913357	4425.856445
1.913457	4378.563477
1.913556	4380.963867
1.913656	4290.231934
1.913756	4373.345703
1.913856	4447.122559
1.913956	4353.320801
1.914056	4377.438965
1.914156	4404.650879
1.914256	4224.062988
1.914356	4276.097656
1.914456	4235.104492
1.914556	4318.119141
1.914656	4146.958496
1.914756	4298.135742
1.914856	4219.984375
1.914956	4033.432861
1.915056	4224.820801
1.915156	4221.043945
1.915256	4229.653320
1.915356	4188.726074
1.915456	4166.384277
1.915557	4100.720703
1.915657	4066.022461
1.915757	4216.968262
1.915857	4166.795410
1.915957	4017.665527
1.916057	4156.176270
1.916158	4161.690918
1.916258	4188.843750
1.916358	4166.533203
1.916458	4097.873535
1.916559	4103.393555
1.916659	4121.269043
1.916759	4173.117188
1.916860	4123.030762
1.916960	4273.674805
1.917061	4100.091309
1.917161	4111.778809
1.917262	4052.474854
1.917362	4054.908203
1.917462	4048.084473
1.917563	3967.224609
1.917663	4083.794434
1.917764	3953.611328
1.917864	4141.064941
1.917965	3980.084717
1.918066	4041.093018
1.918166	4055.852051
1.918267	4030.547363
1.918367	4146.975098
1.918468	3946.076904
1.918569	4077.880127
1.918669	4055.667236
1.918770	3938.012939
1.918871	4026.655029
1.918971	3976.758789
1.919072	3963.808350
1.919173	4012.402100
1.919273	3968.685059
1.919374	4048.021973
1.919475	3930.500732
1.919576	3908.342773
1.919677	3956.905762
1.919777	3959.342529
1.919878	3841.910889
1.919979	3899.679932
1.920080	3920.559570
1.920181	3821.622803
1.920282	3894.724609
1.920383	3857.244873
1.920484	3961.022705
1.920585	3945.034424
1.920686	3852.312012
1.920787	3906.934814
1.920888	3728.327881
1.920989	3804.429688
1.921090	3825.290283
1.921191	3787.868896
1.921292	3833.258057
1.921393	3961.417236
1.921494	3813.629639
1.921595	3846.731689
1.921696	3738.850098
1.921798	3673.901123
1.921899	3927.591797
1.922000	3798.306885
1.922101	3767.068604
1.922202	3665.410400
1.922304	3781.163574
1.922405	3768.309814
1.922506	3807.491943
1.922607	3681.410645
1.922709	3708.354980
1.922810	3719.994629
1.922911	3704.101807
1.923013	3718.796387
1.923114	3709.024170
1.923216	3628.938477
1.923317	3793.418213
1.923418	3740.850830
1.923520	3709.690674
1.923621	3709.093018
1.923723	3671.838379
1.923824	3842.286621
1.923926	3609.579590
1.924027	3633.424561
1.924129	3571.783203
1.924230	3610.887939
1.924332	3527.906982
1.924433	3707.367188
1.924535	3630.499023
1.924637	3761.079102
1.924738	3641.528809
1.924840	3704.978760
1.924942	3576.329346
1.925043	3478.204834
1.925145	3581.272949
1.925247	3504.510986
1.925348	3610.588135
1.925450	3561.263672
1.925552	3499.771484
1.925654	3557.071045
1.925756	3480.374268
1.925857	3574.191650
1.925959	3488.384766
1.926061	3515.213867
1.926163	3392.928223
1.926265	3514.081299
1.926367	3632.153320
1.926468	3531.198242
1.926570	3500.218994
1.926672	3487.492920
1.926774	3444.370361
1.926876	3446.854980
1.926978	3507.080811
1.927080	3388.011230
1.927182	3417.846191
1.927284	3456.784424
1.927386	3322.594727
1.927488	3443.523926
1.927591	3585.666992
1.927693	3442.414307
1.927795	3535.949219
1.927897	3319.918457
1.927999	3340.622803
1.928101	3327.949707
1.928203	3363.811768
1.928306	3408.760254
1.928408	3511.306396
1.928510	3350.058838
1.928612	3413.175049
1.928715	3430.809570
1.928817	3372.681641
1.928919	3311.542725
1.929022	3417.033936
1.929124	3386.195313
1.929226	3388.677979
1.929329	3318.491943
1.929431	3248.328613
1.929533	3344.664063
1.929636	3286.624268
1.929738	3352.663574
1.929841	3225.057373
1.929943	3151.939941
1.930046	3341.969727
1.930148	3338.407227
1.930251	3298.564453
1.930353	3288.964111
1.930456	3258.209229
1.930558	3366.475098
1.930661	3242.051758
1.930764	3338.200928
1.930866	3277.252686
1.930969	3325.044922
1.931072	3309.411377
1.931174	3278.687256
1.931277	3338.530029
1.931380	3350.064209
1.931482	3262.014160
1.931585	3234.334473
1.931688	3212.696777
1.931791	3284.565918
1.931893	3335.302490
1.931996	3346.825439
1.932099	3195.552490
1.932202	3288.477051
1.932305	3179.453613
1.932407	3302.482910
1.932510	3241.696045
1.932613	3111.646973
1.932716	3327.991943
1.932819	3240.128418
1.932922	3245.627686
1.933025	3154.795410
1.933128	3223.512695
1.933231	3174.843506
1.933334	3141.234375
1.933437	3243.012207
1.933540	3263.544678
1.933643	3151.744873
1.933746	3130.188477
1.933849	3093.606689
1.933953	3156.232666
1.934056	3038.511230
1.934159	3155.214844
1.934262	3214.795898
1.934365	3097.121582
1.934468	3054.572998
1.934572	3042.068359
1.934675	3071.603271
1.934778	3209.202881
1.934881	3307.737549
1.934985	3085.123291
1.935088	3132.635498
1.935191	3030.126221
1.935295	3125.625977
1.935398	3107.127197
1.935501	3196.586182
1.935605	3142.103271
1.935708	2979.720459
1.935812	3036.187256
1.935915	3038.694336
1.936018	3128.092041
1.936122	3169.528564
1.936225	3070.172852
1.936329	2976.838623
1.936432	3099.125732
1.936536	3131.558350
1.936639	3065.199463
1.936743	3091.640869
1.936847	3100.119385
1.936950	3138.514404
1.937054	3087.153809
1.937157	3083.665039
1.937261	2990.463379
1.937365	3076.690430
1.937468	3079.183838
1.937572	3015.917725
1.937676	3024.396973
1.937779	3104.586426
1.937883	2993.545654
1.937987	3088.649658
1.938091	3031.406006
1.938195	2995.083496
1.938298	2949.815674
1.938402	3098.598145
1.938506	3002.588379
1.938610	2960.325439
1.938714	3055.326660
1.938818	3004.118896
1.938922	3027.496338
1.939026	3047.883789
1.939130	3065.282959
1.939234	2921.685547
1.939337	3040.447510
1.939442	3031.015869
1.939546	2944.110840
1.939650	2937.677002
1.939754	2964.013184
1.939858	2966.513428
1.939962	2957.101074
1.940066	2941.736816
1.940170	2878.745361
1.940274	2857.445557
1.940378	2973.049316
1.940482	3121.346924
1.940587	2942.339600
1.940691	2935.915527
1.940795	3000.872314
1.940899	2920.100098
1.941004	2898.817139
1.941108	2963.748047
1.941212	2903.825928
1.941316	2939.018066
1.941421	2965.284912
1.941525	2970.747803
1.941629	2890.071289
1.941734	3011.366211
1.941838	2945.555420
1.941943	2867.890625
1.942047	2941.636719
1.942152	2979.744385
1.942256	2979.263428
1.942360	2815.602295
1.942465	2838.879639
1.942569	2874.012939
1.942674	3021.822998
1.942778	2967.965332
1.942883	2949.699219
1.942988	2857.337891
1.943092	2895.403076
1.943197	2826.784912
1.943301	3042.599121
1.943406	2917.698486
1.943511	2866.879639
1.943616	2845.688721
1.943720	2919.246826
1.943825	2977.979980
1.943930	2832.472168
1.944034	2950.385498
1.944139	2772.382080
1.944244	2842.934082
1.944349	2916.420898
1.944453	2782.869385
1.944558	2900.695068
1.944663	2903.183350
1.944768	2917.494385
1.944873	2846.092773
1.944978	2907.687744
1.945083	2913.127197
1.945188	2939.243164
1.945293	2867.883789
1.945397	2858.561768
1.945503	2881.720947
1.945608	2860.591064
1.945712	2806.999756
1.945818	2818.351318
1.945922	2909.367432
1.946028	2731.885742
1.946133	2778.640137
1.946238	2834.227295
1.946343	2848.513672
1.946448	2771.397949
1.946553	2835.802734
1.946658	2847.134277
1.946764	2867.302490
1.946869	2881.571533
1.946974	2895.835938
1.947079	2780.496338
1.947184	2750.597656
1.947290	2788.431885
1.947395	2882.190186
1.947500	2858.176514
1.947606	2840.056641
1.947711	2789.573975
1.947816	2868.560547
1.947922	2721.015381
1.948027	2902.928223
1.948133	2743.662354
1.948238	2819.664795
1.948343	2851.546631
1.948449	2827.572021
1.948554	2736.012939
1.948660	2797.275879
1.948765	2761.570068
1.948871	2746.437256
1.948976	2795.920898
1.949082	2807.214844
1.949187	2844.928711
1.949293	2747.598877
1.949399	2714.870117
1.949504	2864.092285
1.949610	2881.234131
1.949716	2775.160156
1.949821	2733.648438
1.949927	2756.667969
1.950033	2809.001465
1.950138	2811.479492
1.950244	2752.401123
1.950350	2731.441650
1.950456	2766.163574
1.950562	2792.084717
1.950667	2826.785400
1.950773	2797.040527
1.950879	2773.161865
1.950985	2799.064941
1.951091	2830.814209
1.951197	2742.548584
1.951303	2756.738037
1.951409	2729.958740
1.951514	2694.411377
1.951620	2808.053223
1.951726	2614.577148
1.951832	2666.788818
1.951939	2786.227051
1.952044	2753.622070
1.952150	2715.182129
1.952257	2875.465820
1.952363	2787.348633
1.952469	2672.968506
1.952575	2768.923340
1.952681	2791.838623
1.952787	2768.028564
1.952893	2712.113037
1.953000	2732.107178
1.953106	2746.258057
1.953212	2735.606445
1.953318	2724.954834
1.953424	2714.303223
1.953531	2703.651611
1.953637	2741.124023
1.953743	2705.693604
1.953850	2696.510986
1.953956	2698.989746
1.954062	2724.781494
1.954169	2727.254883
1.954275	2767.599854
1.954382	2641.902588
1.954488	2679.335938
1.954594	2687.638428
1.954701	2687.204102
1.954807	2707.146240
1.954914	2729.992188
1.955020	2720.821045
1.955127	2708.743408
1.955234	2757.759033
1.955340	2751.496338
1.955447	2684.165527
1.955553	2721.530762
1.955660	2755.976563
1.955767	2720.651123
1.955873	2711.492676
1.955980	2731.394531
1.956087	2739.668945
1.956193	2701.463623
1.956300	2773.635254
1.956407	2709.302002
1.956514	2734.994629
1.956620	2661.979492
1.956727	2577.377930
1.956834	2762.688232
1.956941	2680.999268
1.957048	2741.487793
1.957154	2746.845703
1.957261	2746.401855
1.957368	2725.660400
1.957475	2696.228027
1.957582	2776.955566
1.957689	2620.002197
1.957796	2657.249512
1.957903	2674.203613
1.958010	2792.541260
1.958117	2745.748047
1.958224	2672.906738
1.958331	2750.651123
1.958438	2782.050781
1.958545	2720.816895
1.958652	2752.210938
1.958759	2705.469238
1.958867	2597.987793
1.958974	2614.923340
1.959081	2695.480713
1.959188	2660.344482
1.959295	2743.759521
1.959403	2679.719482
1.959510	2682.176514
1.959617	2725.089844
1.959724	2811.329346
1.959832	2649.097900
1.959939	2816.197021
1.960046	2752.206787
1.960154	2665.137695
1.960261	2572.322266
1.960368	2569.019775
1.960476	2730.224365
1.960583	2660.528320
1.960690	2657.212891
1.960798	2668.321777
1.960905	2569.827148
1.961013	2716.482178
1.961120	2612.245117
1.961228	2678.127197
1.961336	2720.928955
1.961443	2662.851318
1.961551	2737.337402
1.961658	2682.156738
1.961766	2837.268555
1.961874	2813.769531
1.961981	2695.252930
1.962089	2746.640381
1.962197	2636.808838
1.962304	2691.066895
1.962412	2653.221924
1.962520	2621.143311
1.962627	2744.419434
1.962735	2651.934326
1.962843	2688.890869
1.962951	2757.464355
1.963058	2725.394531
1.963166	2768.069824
1.963274	2621.050293
1.963382	2683.843018
1.963490	2671.916748
1.963598	2694.464844
1.963706	2648.075195
1.963814	2667.748291
1.963922	2741.967041
1.964030	2689.850586
1.964138	2565.995117
1.964246	2706.198975
1.964354	2760.277832
1.964462	2665.159180
1.964570	2779.463379
1.964678	2836.371826
1.964786	2778.563721
1.964894	2772.380127
1.965002	2637.204834
1.965110	2737.090088
1.965219	2690.797607
1.965327	2681.766846
1.965435	2667.009277
1.965543	2646.528320
1.965651	2674.737305
1.965760	2843.238037
1.965868	2645.243408
1.965976	2707.787109
1.966084	2667.282471
1.966193	2598.176270
1.966301	2686.445801
1.966410	2751.802490
1.966518	2628.375488
1.966626	2708.018066
1.966735	2673.270264
1.966843	2684.272217
1.966952	2649.539551
1.967060	2646.252930
1.967169	2745.828613
1.967277	2725.386475
1.967386	2736.370605
1.967494	2667.386719
1.967603	2712.641357
1.967711	2657.958252
1.967820	2674.654785
1.967928	2648.535645
1.968037	2599.596191
1.968146	2607.734619
1.968254	2684.333740
1.968363	2675.342529
1.968472	2646.392334
1.968580	2606.046143
1.968689	2674.043213
1.968798	2670.760010
1.968907	2693.126465
1.969015	2678.443359
1.969124	2760.629150
1.969233	2711.757813
1.969342	2620.181885
1.969451	2676.708740
1.969560	2690.510986
1.969669	2607.522705
1.969777	2698.177979
1.969886	2632.289551
1.969995	2668.851563
1.970104	2773.677002
1.970213	2722.029785
1.970322	2732.964355
1.970431	2778.016357
1.970540	2695.120850
1.970649	2652.046875
1.970758	2716.984131
1.970868	2708.019287
1.970977	2679.169434
1.971086	2621.922607
1.971195	2556.173340
1.971304	2723.303467
1.971413	2700.148193
1.971522	2733.776611
1.971632	2733.333740
1.971741	2667.619385
1.971850	2729.610840
1.971959	2737.679688
1.972068	2740.072754
1.972178	2699.924072
1.972287	2784.554443
1.972396	2741.576172
1.972506	2613.571777
1.972615	2695.340576
1.972724	2689.236328
1.972834	2657.634277
1.972943	2694.030762
1.973053	2631.281738
1.973162	2639.351318
1.973272	2644.586670
1.973381	2692.285156
1.973491	2660.712891
1.973600	2677.262207
1.973710	2645.702637
1.973819	2653.761475
1.973929	2658.988770
1.974039	2715.123047
1.974148	2652.471436
1.974258	2643.559570
1.974367	2708.149414
1.974477	2710.536865
1.974587	2758.139160
1.974697	2723.786133
1.974806	2672.493896
1.974916	2638.165527
1.975026	2626.441406
1.975135	2668.370850
1.975245	2724.402832
1.975355	2712.670166
1.975465	2650.139893
1.975575	2629.957520
1.975685	2660.566406
1.975794	2702.448975
1.975904	2620.217285
1.976014	2718.493164
1.976124	2582.713867
1.976234	2689.420898
1.976344	2632.612061
1.976454	2761.821777
1.976564	2637.394043
1.976674	2713.032959
1.976784	2614.004395
1.976894	2714.969727
1.977004	2593.445801
1.977114	2677.488525
1.977224	2691.129395
1.977335	2617.515381
1.977445	2780.307373
1.977555	2754.533936
1.977665	2590.923828
1.977775	2717.075684
1.977885	2649.141113
1.977996	2603.722656
1.978106	2693.263428
1.978216	2720.935547
1.978327	2633.371094
1.978437	2742.532959
1.978547	2744.897705
1.978658	2668.608154
1.978768	2586.725830
1.978878	2603.155029
1.978989	2698.194580
1.979099	2770.745361
1.979210	2702.933105
1.979320	2668.818848
1.979430	2671.191895
1.979541	2656.731445
1.979651	2653.495605
1.979762	2798.899658
1.979872	2635.810547
1.979983	2576.507568
1.980094	2612.530518
1.980204	2684.976807
1.980315	2712.563477
1.980425	2717.727051
1.980536	2596.829346
1.980647	2705.642090
1.980757	2643.593994
1.980868	2662.764893
1.980979	2743.518555
1.981090	2762.666992
1.981200	2793.003418
1.981311	2739.385498
1.981422	2652.212646
1.981533	2744.091309
1.981644	2701.694336
1.981754	2740.404541
1.981865	2748.347656
1.981976	2661.243408
1.982087	2702.736328
1.982198	2719.064941
1.982309	2665.536377
1.982420	2684.659180
1.982531	2751.259277
1.982642	2694.958740
1.982753	2680.560303
1.982864	2677.333496
1.982975	2635.028809
1.983086	2693.209961
1.983197	2726.258301
1.983308	2745.345703
1.983419	2703.057129
1.983530	2716.563965
1.983642	2596.212158
1.983753	2654.342285
1.983864	2676.213379
1.983975	2614.458984
1.984086	2714.360107
1.984198	2727.851563
1.984309	2808.200195
1.984420	2687.969482
1.984532	2684.748291
1.984643	2653.682373
1.984754	2683.876709
1.984865	2622.200684
1.984977	2610.642334
1.985088	2810.576416
1.985200	2704.392822
1.985311	2756.808838
1.985422	2750.798584
1.985534	2630.771484
1.985645	2574.734619
1.985757	2629.917480
1.985868	2573.898682
1.985980	2634.621826
1.986091	2695.325195
1.986203	2617.096924
1.986315	2669.449951
1.986426	2699.567139
1.986538	2749.112793
1.986650	2659.820557
1.986761	2731.564209
1.986873	2700.589844
1.986985	2627.999268
1.987096	2696.938232
1.987208	2732.564453
1.987320	2779.274170
1.987432	2728.903809
1.987543	2695.186768
1.987655	2686.431885
1.987767	2655.504395
1.987879	2693.873779
1.987991	2773.796143
1.988103	2659.751953
1.988214	2606.687744
1.988326	2711.511963
1.988438	2655.687012
1.988550	2635.874268
1.988662	2693.581055
1.988774	2676.536133
1.988886	2651.194580
1.988998	2634.162109
1.989110	2700.130859
1.989222	2672.031494
1.989334	2671.597412
1.989447	2693.284912
1.989559	2808.966064
1.989671	2568.017090
1.989783	2625.640381
1.989895	2719.168945
1.990007	2680.046143
1.990119	2674.085693
1.990232	2582.504150
1.990344	2637.316162
1.990456	2576.142578
1.990568	2636.459229
1.990681	2660.873047
1.990793	2632.842773
1.990905	2643.452393
1.991018	2626.469482
1.991130	2612.250488
1.991242	2691.807861
1.991355	2509.372070
1.991467	2646.819580
1.991580	2707.035889
1.991692	2596.347656
1.991805	2681.354248
1.991917	2711.226807
1.992030	2597.836914
1.992142	2616.695557
1.992255	2599.746338
1.992367	2599.323975
1.992480	2653.962891
1.992592	2738.863037
1.992705	2658.604492
1.992818	2729.717529
1.992930	2635.729980
1.993043	2646.304932
1.993156	2621.121338
1.993269	2683.943848
1.993381	2735.748047
1.993494	2655.581055
1.993607	2685.383789
1.993720	2723.421387
1.993832	2722.978760
1.993945	2631.876465
1.994058	2647.929443
1.994171	2732.636230
1.994284	2685.511475
1.994397	2745.475342
1.994510	2734.048828
1.994623	2618.331787
1.994736	2689.253418
1.994848	2688.816162
1.994962	2649.973633
1.995075	2674.228027
1.995188	2709.443604
1.995301	2585.617188
1.995414	2694.855225
1.995527	2617.668701
1.995640	2628.205078
1.995753	2668.879639
1.995866	2676.664551
1.995979	2709.100098
1.996092	2590.891602
1.996206	2689.050537
1.996319	2565.407959
1.996432	2660.801514
1.996545	2608.365479
1.996659	2714.667236
1.996772	2629.406006
1.996885	2533.229980
1.996999	2620.344971
1.997112	2699.227539
1.997225	2526.525391
1.997339	2583.525879
1.997452	2656.908691
1.997565	2727.534424
1.997679	2658.776855
1.997792	2680.201172
1.997906	2608.741943
1.998019	2578.273926
1.998133	2665.239502
1.998246	2637.502441
1.998360	2688.941162
1.998473	2562.949219
1.998587	2592.551270
1.998700	2523.915527
1.998814	2684.463623
1.998928	2708.575684
1.999041	2615.409424
1.999155	2552.267822
1.999269	2636.368896
1.999382	2614.132813
1.999496	2692.745361
1.999610	2621.457031
1.999724	2542.018066
1.999838	2661.465576
1.999951	2579.322266
2.000065	2489.035645
2.000179	2559.423096
2.000293	2632.510010
2.000407	2607.584473
2.000521	2577.223877
2.000635	2595.851563
2.000748	2622.634766
2.000862	2703.811768
2.000976	2640.818848
2.001091	2607.758057
2.001204	2498.581299
2.001318	2596.035645
2.001432	2698.894043
2.001547	2712.041992
2.001661	2575.748779
2.001775	2610.645264
2.001889	2487.993408
2.002003	2536.470947
2.002117	2647.384033
2.002231	2606.230713
2.002346	2657.379395
2.002460	2570.100830
2.002574	2558.828369
2.002688	2555.698486
2.002802	2742.452881
2.002917	2793.537598
2.003031	2586.991211
2.003145	2594.703613
2.003260	2591.570313
2.003374	2637.225098
2.003489	2563.626709
2.003603	2625.528320
2.003717	2581.755371
2.003832	2695.097900
2.003946	2589.039063
2.004061	2599.448486
2.004175	2688.366455
2.004290	2606.722412
2.004404	2487.214600
2.004519	2549.047363
2.004633	2608.154297
2.004748	2531.986328
2.004862	2536.983154
2.004977	2552.795410
2.005092	2638.900879
2.005206	2497.896729
2.005321	2548.845215
2.005436	2567.347168
2.005550	2604.757324
2.005665	2615.139404
2.005780	2587.701660
2.005895	2646.695801
2.006010	2630.062988
2.006124	2572.937988
2.006239	2510.432861
2.006354	2477.636475
2.006469	2652.635742
2.006584	2557.771240
2.006699	2557.354248
2.006814	2589.303955
2.006928	2675.177979
2.007043	2529.141357
2.007159	2472.115723
2.007273	2549.880371
2.007388	2587.194824
2.007504	2441.267090
2.007618	2597.128174
2.007734	2548.218506
2.007849	2590.895020
2.007964	2528.538330
2.008079	2538.895752
2.008194	2538.481934
2.008309	2554.217041
2.008425	2599.548584
2.008540	2486.119385
2.008655	2550.278076
2.008770	2587.518555
2.008885	2557.514648
2.009001	2559.786377
2.009116	2605.072266
2.009231	2607.335449
2.009346	2469.845947
2.009462	2560.804688
2.009577	2555.013916
2.009693	2500.872803
2.009808	2535.380371
2.009923	2583.303223
2.010039	2585.566895
2.010154	2504.611084
2.010270	2531.043213
2.010386	2471.591309
2.010501	2519.485107
2.010617	2489.564453
2.010732	2467.700195
2.010848	2596.026367
2.010963	2442.762695
2.011079	2479.897949
2.011194	2543.826172
2.011310	2433.527344
2.011426	2476.005127
2.011541	2446.129883
2.011657	2451.088379
2.011773	2509.612305
2.011889	2527.948242
2.012004	2623.925049
2.012120	2462.874756
2.012236	2604.333008
2.012352	2563.765625
2.012468	2507.157227
2.012583	2477.319824
2.012699	2551.811768
2.012815	2457.790771
2.012931	2567.023193
2.013047	2454.315430
2.013163	2544.800781
2.013279	2488.259277
2.013395	2439.753174
2.013511	2514.165527
2.013627	2649.994873
2.013743	2561.421875
2.013859	2491.571045
2.013975	2528.545410
2.014091	2469.401123
2.014208	2485.013184
2.014324	2484.607666
2.014440	2489.538818
2.014556	2435.774902
2.014672	2523.403076
2.014788	2477.652100
2.014905	2413.250000
2.015021	2532.832520
2.015137	2503.096436
2.015254	2510.683594
2.015370	2566.235352
2.015486	2523.186035
2.015603	2514.782227
2.015719	2517.035400
2.015835	2543.255371
2.015952	2500.237793
2.016068	2523.789551
2.016185	2464.818359
2.016301	2546.917969
2.016418	2477.318115
2.016534	2543.426025
2.016651	2521.730225
2.016767	2449.508789
2.016884	2467.723145
2.017000	2525.812744
2.017117	2517.425537
2.017234	2596.750977
2.017350	2442.194824
2.017467	2433.825195
2.017583	2526.407959
2.017700	2345.377441
2.017817	2504.337402
2.017934	2525.170654
2.018050	2476.970947
2.018167	2556.198730
2.018284	2423.082520
2.018401	2324.505615
2.018517	2411.678711
2.018634	2488.212402
2.018751	2466.588135
2.018868	2487.399658
2.018985	2444.571289
2.019102	2510.445801
2.019219	2459.676025
2.019336	2395.672119
2.019453	2469.470947
2.019570	2386.941895
2.019687	2458.069092
2.019804	2441.777588
2.019921	2343.405762
2.020038	2448.922119
2.020155	2371.757568
2.020272	2400.482910
2.020390	2389.506104
2.020507	2516.111816
2.020624	2420.469238
2.020741	2467.681641
2.020858	2419.678223
2.020976	2413.994873
2.021093	2437.392822
2.021210	2463.426025
2.021327	2389.027100
2.021445	2465.263428
2.021562	2375.037109
2.021679	2456.533447
2.021797	2421.798828
2.021914	2418.762451
2.022031	2384.045410
2.022149	2489.244141
2.022266	2441.330322
2.022384	2438.292480
2.022501	2443.170654
2.022619	2437.495361
2.022736	2423.909180
2.022854	2349.673584
2.022971	2309.739258
2.023089	2288.271484
2.023206	2369.608154
2.023324	2408.751709
2.023442	2382.008301
2.023559	2297.313721
2.023677	2312.742920
2.023795	2425.612549
2.023912	2351.485352
2.024030	2343.202393
2.024148	2450.746826
2.024266	2408.235107
2.024384	2386.789063
2.024501	2367.981201
2.024619	2351.810059
2.024737	2338.274170
2.024855	2227.440430
2.024973	2261.257813
2.025091	2316.095703
2.025208	2363.030273
2.025326	2302.197998
2.025445	2430.576172
2.025563	2272.545654
2.025681	2432.408203
2.025798	2319.076660
2.025917	2360.712402
2.026035	2297.314209
2.026153	2378.315674
2.026271	2380.551270
2.026389	2343.422852
2.026507	2374.524902
2.026625	2374.136475
2.026743	2292.437500
2.026861	2355.002441
2.026980	2354.616943
2.027098	2362.096680
2.027216	2293.558838
2.027334	2272.217285
2.027453	2311.150879
2.027571	2308.152832
2.027689	2341.828613
2.027808	2344.064453
2.027926	2338.443604
2.028044	2345.915527
2.028163	2269.616211
2.028281	2329.443848
2.028400	2289.808838
2.028518	2281.584473
2.028637	2309.988037
2.028755	2343.613281
2.028874	2343.229736
2.028992	2280.091309
2.029111	2290.175537
2.029229	2313.326172
2.029348	2302.493408
2.029467	2325.634277
2.029585	2233.811035
2.029704	2290.914063
2.029823	2350.610352
2.029941	2151.761963
2.030060	2368.117432
2.030179	2284.193359
2.030298	2302.090088
2.030416	2333.029053
2.030535	2374.394531
2.030654	2214.869141
2.030773	2266.674072
2.030892	2294.990234
2.031011	2224.211670
2.031129	2275.989258
2.031248	2270.403320
2.031367	2189.238037
2.031486	2300.929443
2.031605	2277.104248
2.031724	2255.891602
2.031843	2328.448975
2.031962	2275.985596
2.032081	2194.898926
2.032200	2189.333008
2.032319	2243.633789
2.032439	2290.109375
2.032557	2167.441650
2.032677	2297.164063
2.032796	2187.540771
2.032915	2231.394287
2.033034	2277.833496
2.033154	2243.662354
2.033273	2284.885498
2.033392	2276.714355
2.033511	2271.144287
2.033631	2224.005615
2.033750	2161.296143
2.033869	2251.847168
2.033989	2251.478271
2.034108	2243.320068
2.034227	2232.568359
2.034347	2258.158447
2.034466	2234.432129
2.034586	2127.681885
2.034705	2225.916992
2.034825	2189.237793
2.034944	2253.715576
2.035064	2230.009033
2.035183	2164.828369
2.035303	2185.210938
2.035423	2231.504639
2.035542	2251.869385
2.035662	2142.682129
2.035781	2147.511963
2.035901	2175.650635
2.036021	2110.553223
2.036140	2218.954102
2.036260	2148.693115
2.036380	2086.220215
2.036500	2129.873291
2.036619	2168.336914
2.036739	2149.871826
2.036859	2154.692627
2.036979	2094.855957
2.037099	2164.329590
2.037219	2135.535400
2.037339	2272.188721
2.037459	2258.893311
2.037578	2201.672363
2.037699	2144.469971
2.037818	2159.617920
2.037939	2167.012451
2.038059	2174.404297
2.038178	2086.259766
2.038299	2124.641357
2.038419	2077.832031
2.038539	2196.205078
2.038659	2126.176514
2.038779	2216.123779
2.038899	2146.114990
2.039020	2112.235352
2.039140	2140.253662
2.039260	2139.902588
2.039380	2196.262695
2.039500	2185.593018
2.039621	2283.157715
2.039741	2192.605713
2.039861	2181.941650
2.039982	2060.527588
2.040102	2062.764893
2.040222	2036.678345
2.040343	2183.084717
2.040463	2108.081299
2.040584	2092.294189
2.040704	2169.144531
2.040825	2140.489014
2.040945	2086.119873
2.041066	2129.499268
2.041186	2129.149902
2.041307	2157.081543
2.041427	2161.868896
2.041548	2138.382568
2.041668	2140.601318
2.041789	2119.695557
2.041910	2145.036621
2.042031	2106.157471
2.042151	2144.332764
2.042272	2090.060303
2.042393	2040.940063
2.042513	2053.438965
2.042634	1994.075317
2.042755	2086.122314
2.042876	2067.821289
2.042997	2054.656250
2.043118	2092.789307
2.043238	2156.552734
2.043359	2069.027588
2.043480	2125.083496
2.043601	2035.029297
2.043722	2080.821777
2.043843	2067.669189
2.043964	2090.385498
2.044085	2138.707520
2.044206	2041.041992
2.044327	2040.706787
2.044448	1986.610352
2.044569	2098.908447
2.044690	1993.635620
2.044812	2064.954834
2.044933	2090.199463
2.045054	2102.645996
2.045175	1984.653809
2.045296	1943.413818
2.045418	2139.960938
2.045539	2014.351440
2.045660	2113.699219
2.045781	1995.801758
2.045903	2023.579224
2.046024	2036.019775
2.046145	2053.564697
2.046267	1961.291748
2.046388	2106.510254
2.046510	2050.000000
2.046631	2093.055664
2.046753	1931.930420
2.046874	2005.611328
2.046995	1995.076904
2.047117	1979.444092
2.047239	1958.715576
2.047360	1932.893799
2.047482	2001.414673
2.047603	1919.512939
2.047725	2003.305786
2.047847	1944.365356
2.047968	2002.647461
2.048090	2043.078003
2.048212	2017.271606
2.048333	2037.313232
2.048455	1996.238892
2.048577	1952.632080
2.048699	1914.130371
2.048820	1992.709839
2.048942	2015.283203
2.049064	2004.775391
2.049186	1930.678223
2.049308	1983.770020
2.049430	1998.701172
2.049551	1914.471558
2.049674	1967.539673
2.049795	1906.217285
2.049917	1933.857178
2.050040	2002.140503
2.050161	1945.923218
2.050283	1930.363525
2.050405	1924.967041
2.050528	1929.728760
2.050650	1944.643677
2.050772	1992.551270
2.050894	1862.792603
2.051016	1933.534790
2.051138	1892.624390
2.051260	1922.752441
2.051383	1942.725830
2.051505	1927.191650
2.051627	1929.410034
2.051749	1903.743286
2.051872	1893.292114
2.051994	1918.321777
2.052116	1882.534546
2.052239	1879.691650
2.052361	1894.579590
2.052484	1952.514160
2.052606	1873.700195
2.052728	1880.986816
2.052851	1908.520508
2.052973	1842.406250
2.053096	1887.649658
2.053218	1859.509766
2.053341	1970.503052
2.053463	1886.718140
2.053586	1893.993774
2.053709	1855.757935
2.053831	1898.426270
2.053954	1923.388428
2.054076	1882.639404
2.054199	1910.122437
2.054322	1897.177002
2.054445	1856.452271
2.054567	1853.621338
2.054690	1845.741455
2.054813	1926.222900
2.054936	1918.333496
2.055058	1938.207520
2.055181	1824.340332
2.055304	1844.223022
2.055427	1874.188965
2.055550	1878.924561
2.055673	1866.007202
2.055796	1908.560669
2.055919	1852.788818
2.056042	1837.361572
2.056165	1882.418579
2.056288	1851.873901
2.056411	1828.896729
2.056534	1795.852173
2.056657	1830.812866
2.056780	1885.905151
2.056903	1825.175049
2.057026	1852.562256
2.057149	1832.124023
2.057273	1789.046265
2.057396	1798.814941
2.057519	1773.364624
2.057642	1745.407593
2.057765	1845.703491
2.057889	1807.687012
2.058012	1872.746826
2.058136	1776.931519
2.058259	1759.048340
2.058382	1768.808594
2.058506	1831.319702
2.058629	1843.576538
2.058753	1833.227783
2.058876	1750.067505
2.058999	1822.582031
2.059123	1749.490967
2.059246	1759.241211
2.059370	1743.896118
2.059494	1783.749390
2.059617	1763.388550
2.059741	1745.542236
2.059864	1787.882935
2.059988	1722.402832
2.060112	1742.172852
2.060235	1684.240601
2.060359	1849.352295
2.060483	1758.850098
2.060606	1756.055176
2.060730	1820.886963
2.060854	1730.433960
2.060978	1717.629639
2.061101	1764.911499
2.061225	1717.063477
2.061349	1704.267456
2.061473	1769.043335
2.061597	1751.239380
2.061721	1765.958862
2.061845	1843.197021
2.061969	1822.888916
2.062093	1700.082520
2.062217	1737.297852
2.062341	1744.509277
2.062465	1746.720581
2.062589	1658.986084
2.062713	1748.642700
2.062837	1703.396729
2.062961	1750.563354
2.063085	1630.427124
2.063210	1680.086548
2.063334	1719.745483
2.063458	1687.019287
2.063582	1671.770020
2.063706	1746.337280
2.063831	1711.128296
2.063955	1680.918823
2.064079	1800.331177
2.064204	1637.981323
2.064328	1707.507080
2.064452	1764.548340
2.064577	1639.662842
2.064701	1659.324097
2.064825	1693.925415
2.064950	1753.421631
2.065074	1641.071411
2.065199	1635.821045
2.065324	1640.530029
2.065448	1672.616455
2.065573	1684.783569
2.065697	1726.804810
2.065822	1587.204224
2.065946	1711.310791
2.066071	1676.211060
2.066195	1698.313354
2.066320	1685.602417
2.066445	1774.810547
2.066570	1647.766357
2.066694	1543.128296
2.066819	1572.687622
2.066944	1584.848511
2.067069	1676.483032
2.067194	1596.741699
2.067318	1670.963989
2.067443	1648.346191
2.067568	1682.822632
2.067693	1714.806030
2.067818	1637.605103
2.067943	1642.296387
2.068068	1597.378052
2.068193	1634.314209
2.068318	1586.932373
2.068443	1601.545410
2.068568	1668.207642
2.068693	1648.105347
2.068818	1623.053833
2.068943	1625.263306
2.069068	1632.426392
2.069193	1614.819824
2.069319	1614.553101
2.069444	1567.244385
2.069569	1517.475830
2.069694	1616.228516
2.069819	1563.993408
2.069945	1576.106445
2.070070	1556.055298
2.070195	1568.165527
2.070321	1597.583008
2.070446	1612.154907
2.070571	1579.749756
2.070697	1502.862549
2.070822	1549.571045
2.070948	1578.967041
2.071073	1581.176758
2.071199	1573.505005
2.071324	1600.412598
2.071450	1550.760864
2.071575	1592.476929
2.071701	1616.899292
2.071826	1589.482544
2.071952	1579.348999
2.072078	1514.937622
2.072203	1605.963257
2.072329	1514.437012
2.072454	1605.432495
2.072580	1548.456177
2.072706	1550.665649
2.072832	1543.014648
2.072958	1606.835938
2.073083	1559.753174
2.073209	1618.623169
2.073335	1505.046021
2.073461	1573.756958
2.073587	1563.647095
2.073713	1519.072021
2.073838	1548.360352
2.073964	1484.112793
2.074090	1491.249878
2.074217	1591.879883
2.074342	1574.396729
2.074469	1495.429565
2.074594	1512.396606
2.074721	1593.286133
2.074847	1472.562622
2.074973	1514.104492
2.075099	1449.957764
2.075225	1511.146729
2.075351	1459.305176
2.075477	1481.170898
2.075603	1542.324219
2.075730	1475.770020
2.075856	1500.077148
2.075982	1492.464844
2.076109	1511.852417
2.076235	1555.772583
2.076361	1511.352417
2.076488	1481.665283
2.076614	1569.716797
2.076741	1532.672974
2.076867	1488.285767
2.076993	1451.267578
2.077120	1451.027466
2.077246	1509.603149
2.077373	1470.149414
2.077499	1467.456299
2.077626	1494.157349
2.077753	1417.990112
2.077879	1471.625244
2.078006	1481.174683
2.078132	1515.198975
2.078259	1458.657837
2.078386	1451.075439
2.078512	1497.320679
2.078639	1465.272339
2.078766	1501.716675
2.078892	1491.686646
2.079019	1479.214844
2.079146	1390.965210
2.079273	1456.727661
2.079400	1483.367920
2.079527	1522.216309
2.079654	1458.447266
2.079780	1399.584595
2.079907	1426.216553
2.080034	1399.121216
2.080161	1498.984619
2.080288	1488.972656
2.080415	1500.928833
2.080542	1354.272461
2.080669	1354.048218
2.080796	1400.171143
2.080923	1443.839844
2.081050	1450.916382
2.081177	1450.676025
2.081305	1391.930908
2.081432	1428.259888
2.081559	1471.887573
2.081686	1432.659912
2.081814	1471.400024
2.081941	1402.957031
2.082068	1490.395020
2.082195	1412.231934
2.082323	1463.122070
2.082450	1392.291504
2.082577	1319.050659
2.082705	1374.797363
2.082832	1420.794067
2.082960	1396.234009
2.083087	1466.532471
2.083215	1310.663452
2.083342	1414.990234
2.083470	1356.415283
2.083597	1438.825806
2.083724	1438.587402
2.083852	1404.333984
2.083980	1306.931641
2.084107	1408.726318
2.084235	1401.207520
2.084363	1432.539795
2.084490	1383.749756
2.084618	1359.248169
2.084746	1344.461914
2.084874	1434.016724
2.085001	1382.832642
2.085129	1368.049683
2.085257	1411.476807
2.085385	1343.348022
2.085513	1364.945068
2.085641	1367.142822
2.085768	1371.763306
2.085896	1352.150269
2.086024	1339.812012
2.086152	1305.676270
2.086280	1373.275879
2.086408	1334.302490
2.086536	1380.084106
2.086664	1350.805664
2.086792	1377.206055
2.086920	1367.297729
2.087049	1342.875000
2.087177	1427.324097
2.087305	1390.805542
2.087433	1301.094360
2.087561	1312.968506
2.087689	1361.102539
2.087818	1348.790771
2.087946	1343.733521
2.088074	1387.005615
2.088202	1396.439453
2.088331	1362.389648
2.088459	1309.029541
2.088587	1361.937622
2.088716	1274.793945
2.088844	1337.345947
2.088973	1310.574707
2.089101	1312.770386
2.089230	1257.058594
2.089358	1317.159546
2.089487	1324.177002
2.089615	1321.545654
2.089744	1359.905273
2.089872	1342.804077
2.090001	1364.274658
2.090129	1380.918091
2.090258	1296.353638
2.090387	1378.050537
2.090515	1315.193604
2.090644	1278.849609
2.090773	1269.005371
2.090901	1372.320679
2.091030	1379.314453
2.091159	1340.577026
2.091288	1304.258789
2.091417	1294.418335
2.091546	1335.098267
2.091674	1306.014404
2.091803	1298.583252
2.091932	1363.286011
2.092061	1264.496338
2.092190	1355.622559
2.092319	1271.286011
2.092448	1307.116699
2.092577	1311.704346
2.092706	1222.612915
2.092835	1277.646484
2.092964	1296.643799
2.093093	1253.214233
2.093223	1274.609619
2.093352	1252.797974
2.093481	1233.393066
2.093610	1266.776978
2.093739	1199.400146
2.093868	1285.543457
2.093998	1263.747803
2.094127	1229.971436
2.094256	1275.314087
2.094386	1231.959595
2.094515	1205.394409
2.094645	1284.262573
2.094774	1272.071045
2.094903	1269.464478
2.095033	1295.596558
2.095162	1233.126343
2.095292	1264.043823
2.095421	1239.897461
2.095551	1163.108154
2.095680	1294.520508
2.095810	1191.430786
2.095939	1241.465454
2.096069	1272.350464
2.096198	1257.791504
2.096328	1219.328979
2.096458	1204.783691
2.096588	1240.434082
2.096717	1288.020874
2.096847	1232.854004
2.096977	1177.705322
2.097106	1225.278687
2.097236	1291.940674
2.097366	1260.686279
2.097496	1136.338867
2.097626	1238.785278
2.097756	1217.101074
2.097886	1255.075928
2.098016	1242.938721
2.098145	1257.043823
2.098275	1182.903320
2.098405	1170.784180
2.098536	1242.112183
2.098665	1179.929565
2.098796	1208.332886
2.098926	1227.195068
2.099056	1196.018433
2.099186	1169.616211
2.099316	1167.040039
2.099446	1176.371094
2.099576	1123.795166
2.099707	1199.785034
